"Time (s)","Acceleration x (m/s^2)","Acceleration y (m/s^2)","Acceleration z (m/s^2)"
3.968576620E-1,-1.003170490E0,-8.988132477E0,1.400607944E0
4.068576620E-1,-1.716642618E0,-1.029536629E1,1.261744261E0
4.168576620E-1,-6.679822803E-1,-1.014453220E1,1.455674648E0
4.268576620E-1,-9.624691010E-1,-9.498097420E0,1.247379065E0
4.368576620E-1,-1.182735682E0,-9.651326180E0,1.192312479E0
4.468596620E-1,-8.451532125E-1,-1.134402657E1,1.410184860E0
4.568596620E-1,-1.288080573E0,-1.139909363E1,1.620874524E0
4.668596620E-1,-7.445967197E-1,-1.295053673E1,9.744400978E-1
4.768596620E-1,-7.781155705E-1,-1.292180538E1,8.451532125E-1
4.868596620E-1,-1.549048543E0,2.008735180E0,-1.484405041E0
4.968596620E-1,-1.316810966E0,-4.041412354E0,9.002198577E-1
5.068596620E-1,-1.991975784E0,-8.243535995E0,8.283938169E-1
5.168596620E-1,-1.522712231E0,-8.957007408E0,1.125274822E-1
5.268596620E-1,-1.125274777E0,-9.253889084E0,1.273715258E0
5.368596620E-1,-1.601720929E0,-9.718363762E0,1.106121182E0
5.468596620E-1,-1.084573388E0,-9.115025520E0,3.854664862E-1
5.568601950E-1,-1.240196466E0,-8.976161003E0,4.908113480E-1
5.668601950E-1,-7.015010715E-1,-1.086758041E1,1.434126854E0
5.768601950E-1,-5.315127969E-1,-1.062816048E1,1.505952835E0
5.868601950E-1,-1.395819545E0,-1.187553978E1,2.600103140E0
5.968601950E-1,1.005564705E-1,-1.630271721E1,3.521870613E0
6.068601950E-1,-1.501164436E0,-1.607287407E1,4.062960148E0
6.168601950E-1,-2.887407303E0,-1.405905151E1,3.457227230E0
6.268601950E-1,-2.140416384E0,-1.343177128E1,1.462857246E0
6.368601950E-1,-1.575384736E0,-1.279491329E1,8.619125932E-2
6.468601950E-1,-1.201889277E0,-1.204792213E1,-1.764526606E0
6.568601950E-1,-1.000776291E0,-1.192581749E1,-1.912967205E0
6.668601950E-1,-1.144428372E0,-1.130332565E1,-1.161187768E0
6.768601950E-1,-1.561019540E0,-1.069759274E1,-5.099649429E-1
6.868601950E-1,-1.968033791E0,-1.032409668E1,9.337386489E-2
6.968605050E-1,-2.082955360E0,-1.034564495E1,6.081272364E-1
7.068605050E-1,-1.908178806E0,-9.739912033E0,1.240196466E0
7.168605050E-1,-1.853112102E0,-9.098265648E0,1.587355733E0
7.268605050E-1,-1.589749932E0,-8.425495148E0,2.032677174E0
7.368605050E-1,-1.448492050E0,-8.164526939E0,2.190694571E0
7.468602380E-1,-1.019929886E0,-8.121431351E0,2.023100376E0
7.568602380E-1,-7.781155705E-1,-8.176498413E0,1.922544003E0
7.668602380E-1,-3.830722570E-1,-8.487744331E0,1.345541358E0
7.768602380E-1,-1.029506698E-1,-8.727164268E0,8.954314590E-1
7.868602380E-1,-1.077390760E-1,-9.277831078E0,9.648633003E-1
7.968598040E-1,-6.871358752E-1,-9.617807388E0,9.792284966E-1
8.068600700E-1,-9.050082564E-1,-9.761459351E0,4.141969085E-1
8.168600700E-1,-1.079784989E0,-9.749488831E0,3.303998411E-1
8.268600700E-1,-1.175553083E0,-9.785401344E0,4.213795066E-1
8.368600700E-1,-1.266532660E0,-9.711181641E0,4.644751251E-1
8.468600700E-1,-1.431732655E0,-9.792584419E0,4.141969085E-1
8.568598030E-1,-1.570596337E0,-9.730335236E0,5.482721925E-1
8.668598030E-1,-1.891419291E0,-9.656114578E0,1.086967587E0
8.768598030E-1,-1.874659896E0,-9.598653793E0,1.077390790E0
8.868598030E-1,-1.812410712E0,-9.545981407E0,1.118092179E0
8.968598030E-1,-1.747767210E0,-9.538799286E0,1.130063176E0
9.068598030E-1,-1.618480325E0,-9.610625267E0,1.063025594E0
9.168598030E-1,-1.565807939E0,-9.668086052E0,1.067813993E0
9.268598030E-1,-1.438915253E0,-9.706393242E0,1.012747288E0
9.368598030E-1,-1.414973259E0,-9.725546837E0,9.935936928E-1
9.468600690E-1,-1.400607944E0,-9.744700432E0,1.024718285E0
9.568600690E-1,-1.429338455E0,-9.742305756E0,1.086967587E0
9.668600690E-1,-1.527500629E0,-9.689633369E0,1.163581967E0
9.768600690E-1,-1.577778935E0,-9.636960983E0,1.197100878E0
9.868600690E-1,-1.692700624E0,-9.579500198E0,1.304839969E0
9.968597690E-1,-1.738190413E0,-9.519645691E0,1.338358760E0
1.006859769E0,-1.721431017E0,-9.507674217E0,1.347935557E0
1.016859769E0,-1.719036818E0,-9.510068893E0,1.323993564E0
1.026859769E0,-1.673547029E0,-9.510068893E0,1.283292055E0
1.036859769E0,-1.637633920E0,-9.481337547E0,1.273715258E0
1.046859769E0,-1.616086125E0,-9.495702744E0,1.204283476E0
1.056860035E0,-1.649604917E0,-9.498097420E0,1.201889277E0
1.066860035E0,-1.671152830E0,-9.433453560E0,1.254561663E0
1.076860035E0,-1.640028119E0,-9.445425034E0,1.252167463E0
1.086860035E0,-1.580173135E0,-9.526827812E0,1.218648672E0
1.096860468E0,-1.606509328E0,-9.522039413E0,1.300051570E0
1.106860201E0,-1.599326730E0,-9.519645691E0,1.429338455E0
1.116859834E0,-1.592144132E0,-9.481337547E0,1.482010841E0
1.126859834E0,-1.642422318E0,-9.378387451E0,1.505952835E0
1.136859834E0,-1.651999116E0,-9.366415977E0,1.503558636E0
1.146859834E0,-1.733402014E0,-9.356839180E0,1.482010841E0
1.156859834E0,-1.778891921E0,-9.373599052E0,1.460463047E0
1.166859834E0,-1.879448295E0,-9.416694641E0,1.371877551E0
1.176859834E0,-1.956062794E0,-9.428665161E0,1.314416766E0
1.186859834E0,-2.070984364E0,-9.469367027E0,1.256955862E0
1.196860134E0,-2.140416384E0,-9.478943825E0,1.259350061E0
1.206860134E0,-2.121262789E0,-9.488520622E0,1.182735682E0
1.216860134E0,-2.157175779E0,-9.502885818E0,1.103726983E0
1.226860134E0,-2.085349798E0,-9.541193008E0,1.034295082E0
1.236860134E0,-2.030282974E0,-9.560346603E0,1.043871999E0
1.246859867E0,-2.011129379E0,-9.572318077E0,1.027112484E0
1.256859867E0,-1.946485996E0,-9.555558205E0,1.031900883E0
1.266859867E0,-1.879448295E0,-9.555558205E0,1.125274777E0
1.276859867E0,-1.762132406E0,-9.586683273E0,1.170764685E0
1.286859867E0,-1.723825216E0,-9.545981407E0,1.182735682E0
1.296859867E0,-1.726219416E0,-9.586683273E0,1.137245774E0
1.306860133E0,-1.719036818E0,-9.610625267E0,1.048660398E0
1.316860133E0,-1.663970232E0,-9.651326180E0,9.768342972E-1
1.326859633E0,-1.620874524E0,-9.706393242E0,8.738836050E-1
1.336859633E0,-1.608903527E0,-9.706393242E0,7.852981687E-1
1.346859899E0,-1.513135433E0,-9.794978142E0,7.398083210E-1
1.356859632E0,-1.441309452E0,-9.830891609E0,7.158663273E-1
1.366859632E0,-1.297657371E0,-9.850045204E0,7.206547260E-1
1.376859632E0,-1.300051570E0,-9.871592522E0,7.326257229E-1
1.386859632E0,-1.244984865E0,-9.876380920E0,8.092401624E-1
1.396859632E0,-1.256955862E0,-9.859622002E0,8.834604025E-1
1.406859632E0,-1.221042871E0,-9.833285332E0,1.007958889E0
1.416859998E0,-1.149216771E0,-9.792584419E0,1.015141487E0
1.426859998E0,-1.060631394E0,-9.778219223E0,1.060631394E0
1.436859998E0,-1.048660398E0,-9.754277229E0,1.086967587E0
1.446860298E0,-9.720458984E-1,-9.682451248E0,1.039083481E0
1.456860298E0,-9.313444495E-1,-9.620202065E0,1.086967587E0
1.466860298E0,-9.217676520E-1,-9.560346603E0,1.125274777E0
1.476860298E0,-9.217676520E-1,-9.591471672E0,1.098938584E0
1.486860298E0,-8.786720037E-1,-9.557952881E0,1.077390790E0
1.496859998E0,-8.667010069E-1,-9.562741280E0,1.098938584E0
1.506859998E0,-1.031900883E0,-9.553164482E0,1.230619669E0
1.516859998E0,-1.165976286E0,-9.627384186E0,1.285686255E0
1.526859998E0,-1.283292055E0,-9.864410400E0,1.300051570E0
1.536859998E0,-1.307234168E0,-9.974543571E0,1.252167463E0
1.546859998E0,-1.225831270E0,-1.011819553E1,1.240196466E0
1.556860264E0,-1.156399369E0,-1.019002151E1,1.192312479E0
1.566860264E0,-1.029506683E0,-1.022114658E1,1.072602391E0
1.576860264E0,-8.954314590E-1,-1.015650272E1,9.792284966E-1
1.586860264E0,-5.315127969E-1,-9.996091843E0,8.547300100E-1
1.596860264E0,-2.681505978E-1,-9.900322914E0,8.307880163E-1
1.606859997E0,7.900865376E-2,-9.613018990E0,9.193734527E-1
1.616859997E0,1.101332754E-1,-9.455001831E0,1.005564690E0
1.626860497E0,1.197100803E-2,-9.158121109E0,1.328781962E0
1.636860497E0,-8.619125932E-2,-8.966584206E0,1.501164436E0
1.646860230E0,-1.699883193E-1,-8.777442932E0,1.668758631E0
1.656860230E0,-2.681505978E-1,-8.681674957E0,1.687912226E0
1.666860230E0,-4.740519226E-1,-8.573935509E0,1.640028119E0
1.676860230E0,-6.536170840E-1,-8.583512306E0,1.584961534E0
1.686860230E0,-8.020575643E-1,-8.657732964E0,1.386242747E0
1.696860530E0,-8.762778044E-1,-8.743924141E0,1.206677675E0
1.706860530E0,-1.048660398E0,-9.000102997E0,9.768342972E-1
1.716860530E0,-1.084573388E0,-9.184456825E0,9.217676520E-1
1.726860530E0,-1.103726983E0,-9.416694641E0,8.978256583E-1
1.736860530E0,-1.106121182E0,-9.526827812E0,9.433154464E-1
1.746860230E0,-1.082179189E0,-9.605836868E0,1.091755986E0
1.756860230E0,-1.039083481E0,-9.672874451E0,1.225831270E0
1.766860230E0,-1.005564690E0,-9.838073730E0,1.513135433E0
1.776860763E0,-9.648633003E-1,-9.960178375E0,1.673547029E0
1.786860763E0,-6.344634295E-1,-1.010383034E1,1.865083098E0
1.796860763E0,-4.692635238E-1,-1.014213753E1,1.889025092E0
1.806861029E0,-1.197100878E-1,-1.010861874E1,1.848323703E0
1.816861029E0,-6.224924326E-2,-1.002242756E1,1.759738207E0
1.826861029E0,-1.101332754E-1,-9.993697166E0,1.568202138E0
1.836861029E0,-1.795651317E-1,-9.974543571E0,1.381454349E0
1.846861029E0,-4.596867263E-1,-1.002242756E1,1.010353088E0
1.856860762E0,-6.607996821E-1,-1.007270622E1,8.403648138E-1
1.866860762E0,-9.840168953E-1,-1.011819553E1,5.865794420E-1
1.876860762E0,-1.144428372E0,-1.017086792E1,5.315127969E-1
1.886861028E0,-1.414973259E0,-1.026424217E1,5.865794420E-1
1.896861028E0,-1.493981838E0,-1.022593498E1,6.967126727E-1
1.906861028E0,-1.465251446E0,-9.996091843E0,9.169792533E-1
1.916861028E0,-1.405396342E0,-9.845256805E0,1.070208192E0
1.926861028E0,-1.201889277E0,-9.567529678E0,1.288080573E0
1.936861028E0,-1.074996591E0,-9.380781174E0,1.379060149E0
1.946861294E0,-9.720458984E-1,-9.172486305E0,1.441309452E0
1.956861294E0,-9.385270476E-1,-9.138967514E0,1.431732655E0
1.966861294E0,-9.337386489E-1,-9.227552414E0,1.307234168E0
1.976861294E0,-9.169792533E-1,-9.325715065E0,1.268926859E0
1.986861294E0,-9.768342972E-1,-9.514857292E0,1.235408068E0
1.996860994E0,-1.110909581E0,-9.629778862E0,1.209071875E0
2.006860994E0,-1.314416766E0,-9.771036148E0,1.161187768E0
2.016860994E0,-1.374271750E0,-9.806949615E0,1.154005170E0
2.026860994E0,-1.429338455E0,-9.739912033E0,1.154005170E0
2.036860994E0,-1.470039845E0,-9.713575363E0,1.154005170E0
2.046860994E0,-1.328781962E0,-9.634567261E0,1.144428372E0
2.056861260E0,-1.185129881E0,-9.586683273E0,1.189918280E0
2.066861260E0,-1.017535686E0,-9.550769806E0,1.300051570E0
2.076860993E0,-8.690952063E-1,-9.584288597E0,1.323993564E0
2.086860993E0,-6.823474765E-1,-9.636960983E0,1.312022567E0
2.096860993E0,-6.272808313E-1,-9.646537781E0,1.352723956E0
2.106860993E0,-6.224924326E-1,-9.653720856E0,1.312022567E0
2.116860993E0,-6.248866320E-1,-9.639355659E0,1.276109457E0
2.126860993E0,-7.134721279E-1,-9.560346603E0,1.204283476E0
2.136860993E0,-7.948749661E-1,-9.524434090E0,1.211466074E0
2.146860993E0,-1.024718285E0,-9.514857292E0,1.331176162E0
2.156860993E0,-1.098938584E0,-9.505280495E0,1.431732655E0
2.166860993E0,-1.209071875E0,-9.536404610E0,1.556231141E0
2.176860993E0,-1.304839969E0,-9.560346603E0,1.618480325E0
2.186860726E0,-1.508347034E0,-9.663297653E0,1.568202138E0
2.196860992E0,-1.546654344E0,-9.749488831E0,1.484405041E0
2.206860992E0,-1.553836942E0,-9.833285332E0,1.376665950E0
2.216860992E0,-1.513135433E0,-9.847650528E0,1.302445769E0
2.226860992E0,-1.371877551E0,-9.878775597E0,1.206677675E0
2.236860992E0,-1.312022567E0,-9.842862129E0,1.254561663E0
2.246860725E0,-1.240196466E0,-9.742305756E0,1.422155857E0
2.256860725E0,-1.213860273E0,-9.646537781E0,1.553836942E0
2.266860725E0,-1.170764685E0,-9.438241959E0,1.790862918E0
2.276860991E0,-1.151610970E0,-9.337685585E0,1.910573006E0
2.286860991E0,-1.022324085E0,-9.196428299E0,2.109291792E0
2.296860991E0,-1.043871999E0,-9.150938034E0,2.202665567E0
2.306861257E0,-1.156399369E0,-9.155726433E0,2.181117773E0
2.316861257E0,-1.194706678E0,-9.222764015E0,2.080561161E0
2.326861257E0,-1.221042871E0,-9.395146370E0,1.826775908E0
2.336861257E0,-1.182735682E0,-9.462183952E0,1.716642618E0
2.346861257E0,-9.672574997E-1,-9.596260071E0,1.489193439E0
2.356860990E0,-7.805097699E-1,-9.598653793E0,1.446097851E0
2.366860990E0,-4.094084799E-1,-9.610625267E0,1.426944256E0
2.376860723E0,-2.011129409E-1,-9.603442192E0,1.400607944E0
2.386860723E0,3.112462163E-2,-9.584288597E0,1.470039845E0
2.396860723E0,1.005564705E-1,-9.553164482E0,1.563413739E0
2.406860456E0,8.619125932E-2,-9.510068893E0,1.735796213E0
2.416860456E0,-9.576806426E-2,-9.502885818E0,1.862688899E0
2.426860456E0,-3.830722570E-1,-9.443030357E0,2.135627985E0
2.436860456E0,-6.368576288E-1,-9.414299965E0,2.279279947E0
2.446860756E0,-9.528923035E-1,-9.419088364E0,2.408566952E0
2.456860756E0,-1.103726983E0,-9.421483040E0,2.391807556E0
2.466860756E0,-1.412579060E0,-9.452607155E0,2.281674147E0
2.476860756E0,-1.587355733E0,-9.474155426E0,2.054224968E0
2.486860756E0,-1.886630893E0,-9.548376083E0,1.776497602E0
2.496860489E0,-2.051830769E0,-9.608230591E0,1.620874524E0
2.506860489E0,-2.262520552E0,-9.663297653E0,1.314416766E0
2.516860489E0,-2.377442360E0,-9.658509254E0,1.216254473E0
2.526860489E0,-2.533065319E0,-9.687239647E0,1.189918280E0
2.536860489E0,-2.513911724E0,-9.636960983E0,1.233013868E0
2.546860489E0,-2.686294317E0,-9.692028046E0,1.589749932E0
2.556860755E0,-2.700659513E0,-9.591471672E0,1.630451322E0
2.566860755E0,-2.621650934E0,-9.529222488E0,1.850717902E0
2.576860488E0,-2.549824715E0,-9.438241959E0,1.881842494E0
2.586860488E0,-2.454056740E0,-9.335291862E0,1.867477298E0
2.596860488E0,-2.331952572E0,-9.313743591E0,1.891419291E0
2.606860221E0,-2.063801765E0,-9.316138268E0,1.982398987E0
2.616860221E0,-1.977610588E0,-9.340080261E0,2.035071373E0
2.626860221E0,-1.810016513E0,-9.431059837E0,2.059013367E0
2.636859854E0,-1.745373011E0,-9.505280495E0,2.054224968E0
2.646859854E0,-1.482010841E0,-9.687239647E0,1.850717902E0
2.656859854E0,-1.335964561E0,-9.749488831E0,1.678335428E0
2.666859854E0,-1.055842996E0,-1.002242756E1,1.391031146E0
2.676859854E0,-8.930372596E-1,-1.007749462E1,1.240196466E0
2.686859854E0,-6.847416759E-1,-1.003439903E1,1.034295082E0
2.696860120E0,-6.823474765E-1,-9.969755173E0,9.528923035E-1
2.706860120E0,-6.679822803E-1,-9.835680008E0,9.744400978E-1
2.716860120E0,-6.943184733E-1,-9.627384186E0,1.070208192E0
2.726860120E0,-9.361328483E-1,-9.435848236E0,1.285686255E0
2.736860120E0,-1.010353088E0,-9.347262383E0,1.450886250E0
2.746859820E0,-1.007958889E0,-9.237129211E0,1.740584612E0
2.756859820E0,-9.768342972E-1,-9.143755913E0,1.860294700E0
2.766859820E0,-9.768342972E-1,-9.155726433E0,1.872265697E0
2.776859820E0,-9.576807022E-1,-9.217975616E0,1.829170108E0
2.786859820E0,-8.834604025E-1,-9.397541046E0,1.637633920E0
2.796859820E0,-9.097966552E-1,-9.505280495E0,1.501164436E0
2.806860086E0,-9.576807022E-1,-9.629778862E0,1.285686255E0
2.816860086E0,-9.696516991E-1,-9.668086052E0,1.197100878E0
2.826860086E0,-9.600749016E-1,-9.684844971E0,1.125274777E0
2.836860086E0,-1.039083481E0,-9.668086052E0,1.142034173E0
2.846860086E0,-1.115697980E0,-9.603442192E0,1.192312479E0
2.856859819E0,-1.132457376E0,-9.586683273E0,1.268926859E0
2.866859819E0,-1.221042871E0,-9.483732224E0,1.486799240E0
2.876859819E0,-1.276109457E0,-9.435848236E0,1.625662923E0
2.886859819E0,-1.376665950E0,-9.332897186E0,1.819593310E0
2.896859819E0,-1.400607944E0,-9.282619476E0,1.903390408E0
2.906859819E0,-1.352723956E0,-9.241917610E0,2.039859772E0
2.916859819E0,-1.321599364E0,-9.249100685E0,2.063801765E0
2.926859819E0,-1.335964561E0,-9.294589996E0,1.987187386E0
2.936860185E0,-1.357512355E0,-9.387964249E0,1.924938202E0
2.946860485E0,-1.374271750E0,-9.493309021E0,1.821987510E0
2.956860485E0,-1.417367458E0,-9.531616211E0,1.819593310E0
2.966860485E0,-1.482010841E0,-9.615413666E0,1.795651317E0
2.976860485E0,-1.472434044E0,-9.646537781E0,1.836352706E0
2.986860485E0,-1.419761658E0,-9.682451248E0,1.910573006E0
2.996860485E0,-1.395819545E0,-9.660902977E0,1.936909199E0
3.006860485E0,-1.285686255E0,-9.668086052E0,1.956062794E0
3.016860485E0,-1.221042871E0,-9.644144058E0,2.032677174E0
3.026860485E0,-1.101332784E0,-9.569923401E0,2.135627985E0
3.036860485E0,-1.060631394E0,-9.534010887E0,2.176329374E0
3.046860485E0,-9.792284966E-1,-9.447818756E0,2.197877169E0
3.056860751E0,-9.552865028E-1,-9.352050781E0,2.233790159E0
3.066860751E0,-8.571242094E-1,-9.282619476E0,2.264914751E0
3.076860317E0,-8.355764151E-1,-9.261071205E0,2.248155355E0
3.086860317E0,-8.020575643E-1,-9.275436401E0,2.188300371E0
3.096860317E0,-7.781155705E-1,-9.253889084E0,2.197877169E0
3.106860050E0,-7.374141216E-1,-9.265859604E0,2.262520552E0
3.116860050E0,-6.895300746E-1,-9.249100685E0,2.312798738E0
3.126860050E0,-6.703764796E-1,-9.196428299E0,2.353500366E0
3.136860050E0,-6.895300746E-1,-9.155726433E0,2.341529369E0
3.146860050E0,-7.757213712E-1,-9.117419243E0,2.370259762E0
3.156860050E0,-7.900865674E-1,-9.131784439E0,2.401384354E0
3.166860050E0,-8.643068075E-1,-9.155726433E0,2.442085743E0
3.176860050E0,-9.361328483E-1,-9.194033623E0,2.451662540E0
3.186860050E0,-1.101332784E0,-9.285013199E0,2.470816135E0
3.196860350E0,-1.209071875E0,-9.375992775E0,2.466027737E0
3.206860350E0,-1.412579060E0,-9.447818756E0,2.363077164E0
3.216860350E0,-1.493981838E0,-9.526827812E0,2.291250944E0
3.226860350E0,-1.604115129E0,-9.658509254E0,2.140416384E0
3.236860350E0,-1.649604917E0,-9.732728958E0,2.056619167E0
3.246860050E0,-1.687912226E0,-9.845256805E0,1.908178806E0
3.256860050E0,-1.738190413E0,-9.912294388E0,1.867477298E0
3.266860050E0,-1.766920805E0,-9.974543571E0,1.829170108E0
3.276860316E0,-1.728613615E0,-9.943418503E0,1.805228114E0
3.286860316E0,-1.642422318E0,-9.847650528E0,1.917755604E0
3.296859682E0,-1.596932530E0,-9.780612946E0,1.941697598E0
3.306859948E0,-1.391031146E0,-9.677662849E0,2.070984364E0
3.316859948E0,-1.290474772E0,-9.613018990E0,2.121262789E0
3.326859948E0,-1.132457376E0,-9.522039413E0,2.171540976E0
3.336859948E0,-1.029506683E0,-9.498097420E0,2.171540976E0
3.346859948E0,-9.097966552E-1,-9.431059837E0,2.205059767E0
3.356859681E0,-8.619126081E-1,-9.395146370E0,2.257732153E0
3.366859681E0,-8.188169599E-1,-9.366415977E0,2.293645144E0
3.376860114E0,-8.044517636E-1,-9.340080261E0,2.319981337E0
3.386860114E0,-8.116343617E-1,-9.364022255E0,2.319981337E0
3.396860114E0,-8.379706144E-1,-9.344868660E0,2.310404539E0
3.406860114E0,-8.786720037E-1,-9.349657059E0,2.300827742E0
3.416860114E0,-8.595184088E-1,-9.383175850E0,2.324769735E0
3.426860114E0,-8.858546019E-1,-9.366415977E0,2.324769735E0
3.436860114E0,-9.241618514E-1,-9.340080261E0,2.296039343E0
3.446860380E0,-1.000776291E0,-9.361627579E0,2.267308950E0
3.456860380E0,-1.024718285E0,-9.404723167E0,2.284068346E0
3.466860380E0,-1.082179189E0,-9.469367027E0,2.286462545E0
3.476860380E0,-1.122880578E0,-9.490914345E0,2.274491549E0
3.486860380E0,-1.130063176E0,-9.522039413E0,2.276885748E0
3.496860080E0,-1.142034173E0,-9.522039413E0,2.281674147E0
3.506860080E0,-1.144428372E0,-9.498097420E0,2.269703150E0
3.516860080E0,-1.122880578E0,-9.476549149E0,2.288856745E0
3.526860080E0,-1.089361787E0,-9.466972351E0,2.324769735E0
3.536860080E0,-1.065419793E0,-9.438241959E0,2.331952572E0
3.546860080E0,-1.067813993E0,-9.411906242E0,2.327163935E0
3.556860346E0,-1.051054597E0,-9.421483040E0,2.348711967E0
3.566860346E0,-1.027112484E0,-9.433453560E0,2.377442360E0
3.576860079E0,-1.027112484E0,-9.426271439E0,2.389413357E0
3.586860079E0,-1.089361787E0,-9.438241959E0,2.415749550E0
3.596860445E0,-1.120486379E0,-9.459790230E0,2.442085743E0
3.606860178E0,-1.182735682E0,-9.495702744E0,2.410961151E0
3.616860178E0,-1.177947283E0,-9.524434090E0,2.401384354E0
3.626860178E0,-1.228225470E0,-9.519645691E0,2.346317768E0
3.636860178E0,-1.218648672E0,-9.502885818E0,2.322375536E0
3.646860178E0,-1.192312479E0,-9.459790230E0,2.296039343E0
3.656860178E0,-1.149216771E0,-9.459790230E0,2.315192938E0
3.666860178E0,-1.065419793E0,-9.402329445E0,2.382230759E0
3.676860178E0,-1.046266198E0,-9.378387451E0,2.379836559E0
3.686860178E0,-9.935936928E-1,-9.354445457E0,2.413355350E0
3.696860478E0,-9.816226959E-1,-9.352050781E0,2.418143749E0
3.706860478E0,-9.265560508E-1,-9.308955193E0,2.456450939E0
3.716860478E0,-9.409212470E-1,-9.282619476E0,2.437297344E0
3.726860478E0,-9.313444495E-1,-9.285013199E0,2.509123325E0
3.736860078E0,-9.097966552E-1,-9.282619476E0,2.559401512E0
3.746859811E0,-9.337386489E-1,-9.289801598E0,2.566584110E0
3.756859811E0,-9.504981041E-1,-9.289801598E0,2.552218914E0
3.766859811E0,-1.007958889E0,-9.323320389E0,2.566584110E0
3.776859811E0,-1.063025594E0,-9.356839180E0,2.549824715E0
3.786859811E0,-1.065419793E0,-9.392752647E0,2.521094322E0
3.796859811E0,-1.055842996E0,-9.443030357E0,2.504334927E0
3.806860077E0,-1.039083481E0,-9.474155426E0,2.501940727E0
3.816860077E0,-1.036689281E0,-9.522039413E0,2.482787132E0
3.826860077E0,-1.015141487E0,-9.553164482E0,2.466027737E0
3.836860077E0,-9.864110947E-1,-9.553164482E0,2.461239338E0
3.849356846E0,-9.504981041E-1,-9.526827812E0,2.477998734E0
3.859356579E0,-9.481038451E-1,-9.459790230E0,2.480392933E0
3.869356579E0,-9.504981041E-1,-9.411906242E0,2.485181332E0
3.879356579E0,-9.026140571E-1,-9.404723167E0,2.511517525E0
3.889356579E0,-8.571242094E-1,-9.349657059E0,2.521094322E0
3.899356579E0,-8.212111592E-1,-9.308955193E0,2.523488522E0
3.909356579E0,-8.403648138E-1,-9.258677483E0,2.513911724E0
3.919356579E0,-8.355764151E-1,-9.229947090E0,2.504334927E0
3.929356579E0,-8.164227605E-1,-9.251494408E0,2.492363930E0
3.939356579E0,-8.259995580E-1,-9.289801598E0,2.485181332E0
3.949356845E0,-8.020575643E-1,-9.330503464E0,2.461239338E0
3.959356845E0,-7.876923680E-1,-9.335291862E0,2.449268341E0
3.969356845E0,-7.781155705E-1,-9.342473984E0,2.463633537E0
3.979356845E0,-7.829039693E-1,-9.335291862E0,2.482787132E0
3.989356845E0,-7.565677166E-1,-9.373599052E0,2.511517525E0
3.999356545E0,-7.661445141E-1,-9.395146370E0,2.511517525E0
4.009356545E0,-9.121908545E-1,-9.373599052E0,2.497152328E0
4.019356545E0,-1.010353088E0,-9.359233856E0,2.468421936E0
4.029356545E0,-1.118092179E0,-9.383175850E0,2.442085743E0
4.039356945E0,-1.163581967E0,-9.375992775E0,2.425326347E0
4.049356945E0,-1.194706678E0,-9.433453560E0,2.420537949E0
4.059357011E0,-1.225831270E0,-9.428665161E0,2.446874142E0
4.069357011E0,-1.233013868E0,-9.416694641E0,2.489969730E0
4.079357011E0,-1.213860273E0,-9.431059837E0,2.528276920E0
4.089357011E0,-1.192312479E0,-9.445425034E0,2.547430515E0
4.099357011E0,-1.206677675E0,-9.452607155E0,2.559401512E0
4.109356744E0,-1.230619669E0,-9.502885818E0,2.597708941E0
4.119356744E0,-1.249773264E0,-9.474155426E0,2.590526342E0
4.129356744E0,-1.266532660E0,-9.476549149E0,2.590526342E0
4.139356744E0,-1.254561663E0,-9.469367027E0,2.607285738E0
4.149356744E0,-1.266532660E0,-9.433453560E0,2.621650934E0
4.159356744E0,-1.295263171E0,-9.407117844E0,2.609679937E0
4.169356744E0,-1.273715258E0,-9.383175850E0,2.583343744E0
4.179356744E0,-1.261744261E0,-9.392752647E0,2.576161146E0
4.189356744E0,-1.244984865E0,-9.342473984E0,2.590526342E0
4.199357044E0,-1.216254473E0,-9.361627579E0,2.566584110E0
4.209357044E0,-1.216254473E0,-9.380781174E0,2.552218914E0
4.219357044E0,-1.237802267E0,-9.373599052E0,2.535459518E0
4.229357044E0,-1.194706678E0,-9.347262383E0,2.521094322E0
4.239357044E0,-1.175553083E0,-9.356839180E0,2.511517525E0
4.249356777E0,-1.115697980E0,-9.323320389E0,2.489969730E0
4.259356777E0,-1.091755986E0,-9.320926666E0,2.485181332E0
4.269356777E0,-1.082179189E0,-9.301773071E0,2.494758129E0
4.279356777E0,-1.067813993E0,-9.296984673E0,2.499546528E0
4.289356777E0,-1.039083481E0,-9.308955193E0,2.513911724E0
4.299356777E0,-1.034295082E0,-9.294589996E0,2.492363930E0
4.309357043E0,-1.031900883E0,-9.318531990E0,2.466027737E0
4.319357043E0,-9.983820915E-1,-9.304166794E0,2.446874142E0
4.329357043E0,-1.012747288E0,-9.308955193E0,2.437297344E0
4.339357043E0,-1.022324085E0,-9.325715065E0,2.432508945E0
4.349357043E0,-1.007958889E0,-9.359233856E0,2.454056740E0
4.359357243E0,-1.017535686E0,-9.385569572E0,2.470816135E0
4.369357243E0,-1.055842996E0,-9.421483040E0,2.497152328E0
4.379357243E0,-1.086967587E0,-9.433453560E0,2.497152328E0
4.389357243E0,-1.115697980E0,-9.440636635E0,2.513911724E0
4.399357243E0,-1.098938584E0,-9.481337547E0,2.513911724E0
4.409357243E0,-1.137245774E0,-9.478943825E0,2.477998734E0
4.419357243E0,-1.144428372E0,-9.493309021E0,2.466027737E0
4.429357243E0,-1.156399369E0,-9.529222488E0,2.427720547E0
4.439357243E0,-1.170764685E0,-9.548376083E0,2.403778553E0
4.449357509E0,-1.144428372E0,-9.545981407E0,2.370259762E0
4.459357509E0,-1.125274777E0,-9.543587685E0,2.382230759E0
4.469357509E0,-1.036689281E0,-9.476549149E0,2.341529369E0
4.479357509E0,-9.959878922E-1,-9.435848236E0,2.365471363E0
4.489357509E0,-9.409212470E-1,-9.294589996E0,2.434903145E0
4.499357209E0,-9.169792533E-1,-9.206005096E0,2.480392933E0
4.509357209E0,-8.403648138E-1,-9.129390717E0,2.559401512E0
4.519357209E0,-7.829039693E-1,-9.098265648E0,2.612074137E0
4.529357209E0,-6.895300746E-1,-9.079112053E0,2.667140722E0
4.539357209E0,-6.823474765E-1,-9.098265648E0,2.652775526E0
4.549357209E0,-6.991068721E-1,-9.174880028E0,2.614468336E0
4.559357475E0,-7.493851185E-1,-9.208398819E0,2.604891539E0
4.569357475E0,-8.068459630E-1,-9.287407875E0,2.566584110E0
4.579357475E0,-8.619126081E-1,-9.325715065E0,2.506729126E0
4.589357475E0,-9.002198577E-1,-9.421483040E0,2.485181332E0
4.599357475E0,-9.361328483E-1,-9.431059837E0,2.468421936E0
4.609357208E0,-1.003170490E0,-9.433453560E0,2.425326347E0
4.619357208E0,-1.000776291E0,-9.435848236E0,2.430114746E0
4.629357208E0,-1.007958889E0,-9.426271439E0,2.485181332E0
4.639357474E0,-1.003170490E0,-9.416694641E0,2.497152328E0
4.649357474E0,-1.039083481E0,-9.428665161E0,2.449268341E0
4.659357207E0,-1.041477680E0,-9.416694641E0,2.487575531E0
4.669357207E0,-1.055842996E0,-9.397541046E0,2.561795712E0
4.679357207E0,-1.053448796E0,-9.356839180E0,2.616862535E0
4.689357207E0,-1.098938584E0,-9.318531990E0,2.664746523E0
4.699357507E0,-1.125274777E0,-9.277831078E0,2.695871115E0
4.709357507E0,-1.122880578E0,-9.258677483E0,2.715024710E0
4.719357507E0,-1.142034173E0,-9.268254280E0,2.700659513E0
4.729357507E0,-1.264138460E0,-9.282619476E0,2.681505919E0
4.739357507E0,-1.266532660E0,-9.273042679E0,2.683900118E0
4.749357240E0,-1.264138460E0,-9.299378395E0,2.650381327E0
4.759357240E0,-1.288080573E0,-9.292196274E0,2.638410330E0
4.769357240E0,-1.278503656E0,-9.275436401E0,2.647987127E0
4.779357240E0,-1.254561663E0,-9.273042679E0,2.624045134E0
4.789357240E0,-1.182735682E0,-9.285013199E0,2.612074137E0
4.799357240E0,-1.165976286E0,-9.280224800E0,2.616862535E0
4.809357506E0,-1.041477680E0,-9.277831078E0,2.655169725E0
4.819357506E0,-1.012747288E0,-9.320926666E0,2.669534922E0
4.829357506E0,-9.241618514E-1,-9.366415977E0,2.734178305E0
4.839357506E0,-9.385270476E-1,-9.402329445E0,2.746149302E0
4.849357506E0,-9.337386489E-1,-9.486125946E0,2.722207308E0
4.859357239E0,-9.409212470E-1,-9.507674217E0,2.724601507E0
4.869357239E0,-9.959878922E-1,-9.457395554E0,2.719813108E0
4.879357239E0,-9.888052940E-1,-9.438241959E0,2.731784105E0
4.889357239E0,-1.024718285E0,-9.392752647E0,2.755726099E0
4.899357239E0,-1.000776291E0,-9.402329445E0,2.760514498E0
4.909357239E0,-1.012747288E0,-9.380781174E0,2.734178305E0
4.919357239E0,-1.041477680E0,-9.399934769E0,2.705447912E0
4.929357239E0,-1.084573388E0,-9.409511566E0,2.686294317E0
4.939356972E0,-1.132457376E0,-9.404723167E0,2.703053713E0
4.949357238E0,-1.122880578E0,-9.361627579E0,2.664746523E0
4.959357238E0,-1.115697980E0,-9.375992775E0,2.664746523E0
4.969357238E0,-1.101332784E0,-9.337685585E0,2.664746523E0
4.979357238E0,-1.055842996E0,-9.316138268E0,2.695871115E0
4.989357238E0,-1.031900883E0,-9.296984673E0,2.652775526E0
4.999356938E0,-9.959878922E-1,-9.325715065E0,2.674323320E0
5.009356938E0,-1.007958889E0,-9.282619476E0,2.703053713E0
5.019356938E0,-1.036689281E0,-9.253889084E0,2.703053713E0
5.029356938E0,-1.084573388E0,-9.270648003E0,2.681505919E0
5.039356938E0,-1.094150186E0,-9.241917610E0,2.705447912E0
5.049356938E0,-1.165976286E0,-9.256282806E0,2.722207308E0
5.059357204E0,-1.192312479E0,-9.296984673E0,2.693476915E0
5.069357204E0,-1.230619669E0,-9.366415977E0,2.624045134E0
5.079357204E0,-1.206677675E0,-9.354445457E0,2.602497339E0
5.089357204E0,-1.228225470E0,-9.344868660E0,2.540247917E0
5.099357470E0,-1.218648672E0,-9.306561470E0,2.533065319E0
5.109357203E0,-1.201889277E0,-9.251494408E0,2.509123325E0
5.119357203E0,-1.211466074E0,-9.256282806E0,2.521094322E0
5.129357203E0,-1.115697980E0,-9.215581894E0,2.590526342E0
5.139357203E0,-1.022324085E0,-9.206005096E0,2.638410330E0
5.149357203E0,-9.528923035E-1,-9.296984673E0,2.645592928E0
5.159357203E0,-8.954314590E-1,-9.364022255E0,2.612074137E0
5.169357203E0,-8.236053586E-1,-9.450213432E0,2.600103140E0
5.179357203E0,-8.283938169E-1,-9.450213432E0,2.633621931E0
5.189357203E0,-8.547300100E-1,-9.471760750E0,2.557007313E0
5.199357236E0,-8.643068075E-1,-9.490914345E0,2.559401512E0
5.209357236E0,-9.097966552E-1,-9.500492096E0,2.540247917E0
5.219357236E0,-9.241618514E-1,-9.478943825E0,2.489969730E0
5.229357236E0,-9.576807022E-1,-9.438241959E0,2.473210335E0
5.239357236E0,-9.600749016E-1,-9.440636635E0,2.509123325E0
5.249356969E0,-9.864110947E-1,-9.387964249E0,2.552218914E0
5.259356969E0,-9.720458984E-1,-9.404723167E0,2.523488522E0
5.269356969E0,-9.624691010E-1,-9.438241959E0,2.564189911E0
5.279356969E0,-9.720458984E-1,-9.373599052E0,2.566584110E0
5.289356969E0,-9.528923035E-1,-9.344868660E0,2.561795712E0
5.299356969E0,-9.457096457E-1,-9.316138268E0,2.568978310E0
5.309357235E0,-9.433154464E-1,-9.268254280E0,2.595314741E0
5.319357235E0,-9.457096457E-1,-9.222764015E0,2.595314741E0
5.329357235E0,-8.954314590E-1,-9.287407875E0,2.533065319E0
5.339357235E0,-9.145850539E-1,-9.285013199E0,2.557007313E0
5.349357235E0,-9.002198577E-1,-9.268254280E0,2.580949545E0
5.359356968E0,-9.050082564E-1,-9.280224800E0,2.573766708E0
5.369356968E0,-9.265560508E-1,-9.368810654E0,2.614468336E0
5.379356968E0,-9.385270476E-1,-9.383175850E0,2.664746523E0
5.389356968E0,-9.744400978E-1,-9.354445457E0,2.657563925E0
5.399356701E0,-9.983820915E-1,-9.402329445E0,2.647987127E0
5.409356701E0,-1.077390790E0,-9.428665161E0,2.693476915E0
5.419356701E0,-1.084573388E0,-9.421483040E0,2.691082716E0
5.429356701E0,-1.130063176E0,-9.423876762E0,2.640804529E0
5.439356701E0,-1.118092179E0,-9.419088364E0,2.633621931E0
5.449356967E0,-1.134851575E0,-9.368810654E0,2.647987127E0
5.459356967E0,-1.115697980E0,-9.366415977E0,2.626439333E0
5.469356967E0,-1.094150186E0,-9.304166794E0,2.621650934E0
5.479356967E0,-1.053448796E0,-9.308955193E0,2.645592928E0
5.489356967E0,-1.012747288E0,-9.249100685E0,2.633621931E0
5.499356933E0,-9.816226959E-1,-9.229947090E0,2.597708941E0
5.509356933E0,-9.002198577E-1,-9.275436401E0,2.626439333E0
5.519356933E0,-9.217676520E-1,-9.285013199E0,2.631227732E0
5.529356933E0,-9.121908545E-1,-9.265859604E0,2.626439333E0
5.539356933E0,-9.097966552E-1,-9.296984673E0,2.643198729E0
5.549356933E0,-9.169792533E-1,-9.299378395E0,2.652775526E0
5.559357199E0,-9.002198577E-1,-9.296984673E0,2.664746523E0
5.569357199E0,-9.145850539E-1,-9.378387451E0,2.643198729E0
5.579357199E0,-9.193734527E-1,-9.399934769E0,2.647987127E0
5.589357199E0,-9.289502501E-1,-9.354445457E0,2.638410330E0
5.599357199E0,-9.481038451E-1,-9.359233856E0,2.597708941E0
5.609356932E0,-9.600749016E-1,-9.371204376E0,2.571372509E0
5.619356932E0,-9.624691010E-1,-9.373599052E0,2.571372509E0
5.629356932E0,-1.012747288E0,-9.344868660E0,2.568978310E0
5.639356932E0,-1.024718285E0,-9.352050781E0,2.585737944E0
5.649356932E0,-1.055842996E0,-9.399934769E0,2.638410330E0
5.659356932E0,-1.084573388E0,-9.378387451E0,2.645592928E0
5.669356932E0,-1.125274777E0,-9.399934769E0,2.631227732E0
5.679356932E0,-1.144428372E0,-9.435848236E0,2.650381327E0
5.689356932E0,-1.170764685E0,-9.392752647E0,2.700659513E0
5.699357232E0,-1.163581967E0,-9.380781174E0,2.669534922E0
5.709357232E0,-1.170764685E0,-9.395146370E0,2.657563925E0
5.719357232E0,-1.154005170E0,-9.356839180E0,2.669534922E0
5.729357232E0,-1.146822572E0,-9.316138268E0,2.638410330E0
5.739357232E0,-1.127668977E0,-9.320926666E0,2.612074137E0
5.749356965E0,-1.067813993E0,-9.289801598E0,2.650381327E0
5.759356965E0,-1.039083481E0,-9.270648003E0,2.657563925E0
5.769356965E0,-1.000776291E0,-9.261071205E0,2.650381327E0
5.779356965E0,-9.672574997E-1,-9.318531990E0,2.640804529E0
5.789356965E0,-9.385270476E-1,-9.323320389E0,2.643198729E0
5.799356965E0,-9.361328483E-1,-9.282619476E0,2.647987127E0
5.809357231E0,-9.097966552E-1,-9.301773071E0,2.616862535E0
5.819357231E0,-8.810662031E-1,-9.299378395E0,2.631227732E0
5.829357231E0,-8.930372596E-1,-9.280224800E0,2.616862535E0
5.839357231E0,-9.097966552E-1,-9.287407875E0,2.612074137E0
5.849357231E0,-9.002198577E-1,-9.354445457E0,2.614468336E0
5.859356964E0,-9.337386489E-1,-9.364022255E0,2.624045134E0
5.869356964E0,-9.696516991E-1,-9.416694641E0,2.624045134E0
5.879356964E0,-9.959878922E-1,-9.402329445E0,2.624045134E0
5.889356964E0,-1.000776291E0,-9.395146370E0,2.643198729E0
5.899356964E0,-1.031900883E0,-9.361627579E0,2.667140722E0
5.909356964E0,-1.058237195E0,-9.356839180E0,2.674323320E0
5.919356964E0,-1.034295082E0,-9.402329445E0,2.703053713E0
5.929356964E0,-1.055842996E0,-9.380781174E0,2.705447912E0
5.939356964E0,-1.084573388E0,-9.342473984E0,2.707842112E0
5.949357230E0,-1.046266198E0,-9.390357971E0,2.693476915E0
5.959357230E0,-1.034295082E0,-9.397541046E0,2.700659513E0
5.969357230E0,-1.034295082E0,-9.356839180E0,2.693476915E0
5.979357230E0,-1.003170490E0,-9.349657059E0,2.667140722E0
5.989357230E0,-9.696516991E-1,-9.359233856E0,2.657563925E0
5.999356930E0,-9.720458984E-1,-9.344868660E0,2.655169725E0
6.009356930E0,-9.600749016E-1,-9.311349869E0,2.604891539E0
6.019356930E0,-9.457096457E-1,-9.328108788E0,2.573766708E0
6.029356930E0,-9.552865028E-1,-9.325715065E0,2.616862535E0
6.039356930E0,-9.624691010E-1,-9.306561470E0,2.626439333E0
6.049356930E0,-9.481038451E-1,-9.344868660E0,2.624045134E0
6.059357196E0,-9.481038451E-1,-9.347262383E0,2.643198729E0
6.069357196E0,-9.935936928E-1,-9.340080261E0,2.652775526E0
6.079357196E0,-9.816226959E-1,-9.349657059E0,2.643198729E0
6.089357196E0,-9.433154464E-1,-9.411906242E0,2.624045134E0
6.099357196E0,-9.481038451E-1,-9.399934769E0,2.645592928E0
6.109356929E0,-9.792284966E-1,-9.395146370E0,2.631227732E0
6.119356929E0,-9.792284966E-1,-9.375992775E0,2.609679937E0
6.129356929E0,-1.024718285E0,-9.371204376E0,2.621650934E0
6.139356929E0,-1.031900883E0,-9.332897186E0,2.616862535E0
6.149356929E0,-1.055842996E0,-9.313743591E0,2.580949545E0
6.159356929E0,-1.039083481E0,-9.296984673E0,2.583343744E0
6.169356929E0,-1.024718285E0,-9.306561470E0,2.628833532E0
6.179356929E0,-1.029506683E0,-9.294589996E0,2.624045134E0
6.189356929E0,-1.005564690E0,-9.349657059E0,2.604891539E0
6.199357229E0,-9.911994934E-1,-9.356839180E0,2.602497339E0
6.209357229E0,-1.015141487E0,-9.337685585E0,2.609679937E0
6.219357229E0,-9.935936928E-1,-9.347262383E0,2.585737944E0
6.229357229E0,-1.048660398E0,-9.387964249E0,2.576161146E0
6.239357229E0,-1.036689281E0,-9.373599052E0,2.583343744E0
6.249356962E0,-1.051054597E0,-9.354445457E0,2.530671120E0
6.259356962E0,-1.060631394E0,-9.356839180E0,2.494758129E0
6.269356962E0,-1.058237195E0,-9.366415977E0,2.513911724E0
6.279356962E0,-1.063025594E0,-9.332897186E0,2.485181332E0
6.289356962E0,-1.048660398E0,-9.387964249E0,2.473210335E0
6.299356962E0,-1.041477680E0,-9.380781174E0,2.504334927E0
6.309357228E0,-1.055842996E0,-9.344868660E0,2.554613113E0
6.319357228E0,-1.048660398E0,-9.325715065E0,2.566584110E0
6.329357228E0,-1.055842996E0,-9.366415977E0,2.557007313E0
6.339357228E0,-1.067813993E0,-9.340080261E0,2.609679937E0
6.349357228E0,-1.067813993E0,-9.323320389E0,2.573766708E0
6.359356961E0,-1.074996591E0,-9.320926666E0,2.557007313E0
6.369356961E0,-1.067813993E0,-9.371204376E0,2.547430515E0
6.379356961E0,-1.079784989E0,-9.335291862E0,2.580949545E0
6.389356961E0,-1.089361787E0,-9.344868660E0,2.547430515E0
6.399356961E0,-1.072602391E0,-9.390357971E0,2.552218914E0
6.409356961E0,-1.067813993E0,-9.335291862E0,2.621650934E0
6.419356961E0,-1.067813993E0,-9.330503464E0,2.597708941E0
6.429356961E0,-1.046266198E0,-9.397541046E0,2.643198729E0
6.439356961E0,-1.034295082E0,-9.375992775E0,2.669534922E0
6.449357261E0,-1.046266198E0,-9.328108788E0,2.712630510E0
6.459357261E0,-1.012747288E0,-9.337685585E0,2.722207308E0
6.469357261E0,-9.648633003E-1,-9.378387451E0,2.724601507E0
6.479357261E0,-9.816226959E-1,-9.361627579E0,2.726995707E0
6.489357261E0,-9.792284966E-1,-9.323320389E0,2.736572504E0
6.499356961E0,-9.672574997E-1,-9.387964249E0,2.707842112E0
6.509356961E0,-9.481038451E-1,-9.373599052E0,2.777273893E0
6.519356961E0,-9.528923035E-1,-9.299378395E0,2.782062292E0
6.529356961E0,-9.241618514E-1,-9.308955193E0,2.731784105E0
6.539356961E0,-9.050082564E-1,-9.349657059E0,2.731784105E0
6.549356961E0,-9.337386489E-1,-9.318531990E0,2.755726099E0
6.559357227E0,-9.576807022E-1,-9.296984673E0,2.722207308E0
6.569357227E0,-9.648633003E-1,-9.328108788E0,2.722207308E0
6.579357227E0,-9.624691010E-1,-9.332897186E0,2.746149302E0
6.589357227E0,-9.002198577E-1,-9.342473984E0,2.777273893E0
6.599357227E0,-8.906430602E-1,-9.354445457E0,2.803610086E0
6.609356960E0,-8.379706144E-1,-9.344868660E0,2.861071110E0
6.619356960E0,-8.212111592E-1,-9.340080261E0,2.916137695E0
6.629356960E0,-6.655880809E-1,-9.431059837E0,3.074155092E0
6.639356960E0,-7.062895298E-1,-9.378387451E0,2.877830505E0
6.649356960E0,-7.829039693E-1,-9.332897186E0,2.849100113E0
6.659356960E0,-7.445967197E-1,-9.316138268E0,2.849100113E0
6.669356960E0,-7.709329724E-1,-9.253889084E0,2.820369720E0
6.679356960E0,-7.254431248E-1,-9.263465881E0,2.861071110E0
6.689356960E0,-7.469909191E-1,-9.229947090E0,2.904166698E0
6.699357260E0,-7.398083210E-1,-9.227552414E0,2.916137695E0
6.709357260E0,-6.919242740E-1,-9.249100685E0,2.944868088E0
6.719357260E0,-6.823474765E-1,-9.258677483E0,2.964021683E0
6.729357260E0,-6.919242740E-1,-9.287407875E0,2.992752075E0
6.739357260E0,-7.182605267E-1,-9.296984673E0,3.011905670E0
6.749356960E0,-7.637503147E-1,-9.352050781E0,3.004723072E0
6.759356960E0,-7.445967197E-1,-9.361627579E0,2.999934673E0
6.769356960E0,-7.781155705E-1,-9.380781174E0,2.978386879E0
6.779356960E0,-7.972691655E-1,-9.383175850E0,2.992752075E0
6.789356960E0,-7.805097699E-1,-9.390357971E0,3.023876667E0
6.799356960E0,-7.637503147E-1,-9.407117844E0,3.021482468E0
6.809357226E0,-7.206547260E-1,-9.421483040E0,2.990357876E0
6.819357226E0,-7.038952708E-1,-9.416694641E0,2.992752075E0
6.829357226E0,-6.488286853E-1,-9.402329445E0,3.004723072E0
6.839357226E0,-6.009446383E-1,-9.373599052E0,3.007117271E0
6.849357226E0,-6.081272364E-1,-9.318531990E0,3.002328873E0
6.859356959E0,-5.793967843E-1,-9.275436401E0,2.987963676E0
6.869356959E0,-5.099649429E-1,-9.174880028E0,3.009511471E0
6.879356959E0,-4.884171486E-1,-9.160514832E0,3.023876667E0
6.889356959E0,-4.046200812E-1,-9.107842445E0,3.043030262E0
6.899356959E0,-3.782838583E-1,-9.088688850E0,3.040636063E0
6.909356959E0,-3.016694188E-1,-9.064746857E0,3.055001259E0
6.919356959E0,-2.442085743E-1,-9.074323654E0,3.038241863E0
6.929356959E0,-1.675941199E-1,-9.086295128E0,3.014299870E0
6.939356959E0,-1.723825186E-1,-9.124602318E0,2.985569477E0
6.949357225E0,-1.963245422E-1,-9.213187218E0,2.975992680E0
6.959357225E0,-2.418143749E-1,-9.232340813E0,2.947262287E0
6.969357225E0,-3.136404157E-1,-9.311349869E0,2.959233284E0
6.979357225E0,-3.687070608E-1,-9.320926666E0,2.961627483E0
6.989357225E0,-4.357447028E-1,-9.323320389E0,2.973598480E0
6.999356925E0,-4.525041282E-1,-9.337685585E0,3.019088268E0
7.009356925E0,-5.003881454E-1,-9.318531990E0,3.074155092E0
7.019356925E0,-4.812345505E-1,-9.308955193E0,3.119644880E0
7.029356925E0,-4.620809257E-1,-9.318531990E0,3.145981073E0
7.039356925E0,-4.644751251E-1,-9.292196274E0,3.136404276E0
7.049356925E0,-4.429273009E-1,-9.325715065E0,3.141192675E0
7.059357191E0,-4.285621047E-1,-9.364022255E0,3.124433279E0
7.069357191E0,-4.501099288E-1,-9.380781174E0,3.112462282E0
7.079357191E0,-4.525041282E-1,-9.423876762E0,3.095702887E0
7.089357191E0,-4.381389022E-1,-9.414299965E0,3.062183857E0
7.099357191E0,-4.213795066E-1,-9.383175850E0,3.059789658E0
7.109356924E0,-3.519476354E-1,-9.311349869E0,3.076549292E0
7.119356924E0,-2.825157940E-1,-9.273042679E0,3.105279684E0
7.129356924E0,-1.963245422E-1,-9.191639900E0,3.124433279E0
7.139356924E0,-1.723825186E-1,-9.170091629E0,3.134010077E0
7.149356924E0,-1.436520964E-1,-9.150938034E0,3.150769472E0
7.159356924E0,-1.077390760E-1,-9.170091629E0,3.162740469E0
7.169356924E0,-9.337386489E-2,-9.191639900E0,3.155557871E0
7.179356924E0,-9.097966552E-2,-9.213187218E0,3.141192675E0
7.189356924E0,-1.005564705E-1,-9.253889084E0,3.105279684E0
7.199357190E0,-1.173158810E-1,-9.241917610E0,3.098097086E0
7.209357190E0,-1.891419291E-1,-9.246706009E0,3.095702887E0
7.219357190E0,-2.346317619E-1,-9.227552414E0,3.093308687E0
7.229357190E0,-2.753331959E-1,-9.246706009E0,3.105279684E0
7.239357190E0,-2.896983922E-1,-9.294589996E0,3.131615877E0
7.249356923E0,-3.327940404E-1,-9.311349869E0,3.155557871E0
7.259356923E0,-3.519476354E-1,-9.313743591E0,3.181894064E0
7.269356923E0,-3.543418646E-1,-9.352050781E0,3.289633036E0
7.279356923E0,-4.141969085E-1,-9.313743591E0,3.217807055E0
7.289356923E0,-4.548983276E-1,-9.356839180E0,3.303998232E0
7.299356923E0,-4.285621047E-1,-9.356839180E0,3.287238836E0
7.309357189E0,-3.902548850E-1,-9.354445457E0,3.325546265E0
7.319357189E0,-3.998316824E-1,-9.366415977E0,3.315969467E0
7.329357189E0,-3.495534360E-1,-9.328108788E0,3.315969467E0
7.339357189E0,-3.591302633E-1,-9.356839180E0,3.330334663E0
7.349357189E0,-3.567360640E-1,-9.335291862E0,3.347094059E0
7.359356922E0,-3.495534360E-1,-9.320926666E0,3.344699860E0
7.369356922E0,-3.064578176E-1,-9.311349869E0,3.320757866E0
7.379356922E0,-2.873041928E-1,-9.299378395E0,3.315969467E0
7.389356922E0,-2.992752194E-1,-9.277831078E0,3.327940464E0
7.399356922E0,-3.016694188E-1,-9.249100685E0,3.330334663E0
7.409356922E0,-2.873041928E-1,-9.198822021E0,3.423708439E0
7.419356922E0,-2.466027737E-1,-9.153332710E0,3.404554844E0
7.429356922E0,-2.130839527E-1,-9.134179115E0,3.435679436E0
7.439356922E0,-1.867477298E-1,-9.107842445E0,3.435679436E0
7.449357188E0,-1.436520964E-1,-9.124602318E0,3.406949043E0
7.459357188E0,-1.484405100E-1,-9.119813919E0,3.375824451E0
7.469357188E0,-1.604115069E-1,-9.115025520E0,3.349488258E0
7.479357188E0,-1.580173075E-1,-9.122207642E0,3.363853455E0
7.489357188E0,-1.699883193E-1,-9.143755913E0,3.409343243E0
7.499356921E0,-1.699883193E-1,-9.206005096E0,3.402160645E0
7.509356921E0,-1.173158810E-1,-9.251494408E0,3.383007050E0
7.519356921E0,-1.244984865E-1,-9.268254280E0,3.411737442E0
7.529356921E0,-1.723825186E-1,-9.294589996E0,3.373430252E0
7.539356921E0,-2.106897533E-1,-9.299378395E0,3.366247654E0
7.549356921E0,-2.035071403E-1,-9.340080261E0,3.404554844E0
7.559357187E0,-2.035071403E-1,-9.323320389E0,3.450044632E0
7.569357187E0,-2.513911724E-1,-9.335291862E0,3.464409828E0
7.579357187E0,-1.819593310E-1,-9.368810654E0,3.457227230E0
7.589357187E0,-1.484405100E-1,-9.443030357E0,3.445256233E0
7.599357187E0,-1.316810995E-1,-9.455001831E0,3.423708439E0
7.609356920E0,-1.221042871E-1,-9.462183952E0,3.414131641E0
7.619356920E0,-1.604115069E-1,-9.464578629E0,3.399766445E0
7.629356920E0,-1.053448766E-1,-9.440636635E0,3.299209833E0
7.639356920E0,-1.077390760E-1,-9.440636635E0,3.248931646E0
7.649356920E0,-4.548983276E-2,-9.397541046E0,3.251325846E0
7.659356920E0,-1.675941236E-2,-9.364022255E0,3.268085241E0
7.669356920E0,8.858546615E-2,-9.356839180E0,3.268085241E0
7.679356920E0,1.436520964E-1,-9.378387451E0,3.236960649E0
7.689356920E0,2.585737705E-1,-9.301773071E0,3.244143248E0
7.699357220E0,2.849099934E-1,-9.268254280E0,3.236960649E0
7.709357220E0,3.327940404E-1,-9.229947090E0,3.287238836E0
7.719357220E0,3.471592367E-1,-9.210793495E0,3.299209833E0
7.729357220E0,3.495534360E-1,-9.119813919E0,3.383007050E0
7.739357220E0,3.256114423E-1,-9.083900452E0,3.402160645E0
7.749356953E0,2.418143749E-1,-9.052776337E0,3.442862034E0
7.759356953E0,1.843535304E-1,-8.992920876E0,3.457227230E0
7.769356953E0,8.858546615E-2,-9.012074471E0,3.442862034E0
7.779357219E0,6.224924326E-2,-9.014469147E0,3.433285236E0
7.789357219E0,2.154781483E-2,-9.057564735E0,3.406949043E0
7.799357219E0,2.394201607E-2,-9.088688850E0,3.390189648E0
7.809357485E0,7.182605099E-3,-9.177274704E0,3.325546265E0
7.819357485E0,-2.873042040E-2,-9.206005096E0,3.275267839E0
7.829357485E0,-8.140286058E-2,-9.220370293E0,3.201047659E0
7.839357485E0,-1.316810995E-1,-9.239523888E0,3.167528868E0
7.849357485E0,-2.657563984E-1,-9.208398819E0,3.145981073E0
7.859357218E0,-3.088520169E-1,-9.196428299E0,3.136404276E0
7.869357218E0,-3.830722570E-1,-9.189245224E0,3.184288263E0
7.879357218E0,-4.046200812E-1,-9.170091629E0,3.203441858E0
7.889357218E0,-4.405331016E-1,-9.206005096E0,3.268085241E0
7.899357218E0,-4.141969085E-1,-9.244312286E0,3.347094059E0
7.909357218E0,-4.908113480E-1,-9.385569572E0,3.337517262E0
7.919357218E0,-5.339069963E-1,-9.399934769E0,3.332728863E0
7.929357218E0,-5.602431893E-1,-9.478943825E0,3.330334663E0
7.939357218E0,-4.812345505E-1,-9.536404610E0,3.335123062E0
7.949357484E0,-4.094084799E-1,-9.598653793E0,3.308786631E0
7.959357484E0,-3.687070608E-1,-9.641749382E0,3.335123062E0
7.969357484E0,-2.561795712E-1,-9.586683273E0,3.378218651E0
7.979357484E0,-2.130839527E-1,-9.512462616E0,3.385401249E0
7.989357484E0,-1.915361285E-1,-9.428665161E0,3.383007050E0
7.999357184E0,-1.244984865E-1,-9.395146370E0,3.368641853E0
8.009357184E0,-1.125274822E-1,-9.292196274E0,3.325546265E0
8.019357184E0,-1.340752989E-1,-9.256282806E0,3.308786631E0
8.029357184E0,-1.915361285E-1,-9.117419243E0,3.347094059E0
8.039357184E0,-2.082955539E-1,-9.079112053E0,3.349488258E0
8.049357184E0,-2.178723514E-1,-9.047987938E0,3.423708439E0
8.059357450E0,-1.675941199E-1,-9.040804863E0,3.430891037E0
8.069357450E0,-1.939303428E-1,-9.079112053E0,3.392583847E0
8.079357183E0,-1.747767180E-1,-9.086295128E0,3.335123062E0
8.089357183E0,-2.202665508E-1,-9.026439667E0,3.248931646E0
8.099357183E0,-1.891419291E-1,-9.033622742E0,3.258508444E0
8.109356916E0,-1.867477298E-1,-9.062353134E0,3.315969467E0
8.119356916E0,-1.891419291E-1,-9.098265648E0,3.315969467E0
8.129356916E0,-2.466027737E-1,-9.177274704E0,3.289633036E0
8.139356916E0,-2.633621991E-1,-9.191639900E0,3.251325846E0
8.149356916E0,-3.184288144E-1,-9.323320389E0,3.157952070E0
8.159356916E0,-3.567360640E-1,-9.375992775E0,3.112462282E0
8.169356916E0,-4.046200812E-1,-9.438241959E0,3.114856482E0
8.179356916E0,-4.237737060E-1,-9.452607155E0,3.105279684E0
8.189356916E0,-4.357447028E-1,-9.529222488E0,3.162740469E0
8.199357216E0,-4.668693244E-1,-9.550769806E0,3.143586874E0
8.209357216E0,-4.572925270E-1,-9.605836868E0,3.009511471E0
8.219357216E0,-4.644751251E-1,-9.572318077E0,2.920926094E0
8.229357216E0,-4.740519226E-1,-9.486125946E0,2.918531895E0
8.239357216E0,-4.477157295E-1,-9.431059837E0,2.971204281E0
8.249356949E0,-4.094084799E-1,-9.366415977E0,3.078943491E0
8.259356949E0,-3.711012602E-1,-9.325715065E0,3.136404276E0
8.269356949E0,-2.825157940E-1,-9.273042679E0,3.181894064E0
8.279356949E0,-2.681505978E-1,-9.289801598E0,3.179499865E0
8.289356949E0,-2.537853718E-1,-9.256282806E0,3.208230257E0
8.299356949E0,-2.777273953E-1,-9.232340813E0,3.241749048E0
8.309357215E0,-2.777273953E-1,-9.198822021E0,3.287238836E0
8.319357215E0,-2.825157940E-1,-9.182063103E0,3.306392431E0
8.329357215E0,-2.609679997E-1,-9.162909508E0,3.306392431E0
8.339357215E0,-2.346317619E-1,-9.172486305E0,3.256114244E0
8.349357215E0,-2.657563984E-1,-9.241917610E0,3.234566450E0
8.359356948E0,-2.968810201E-1,-9.270648003E0,3.241749048E0
8.369356948E0,-3.303998411E-1,-9.294589996E0,3.270479441E0
8.379356948E0,-3.064578176E-1,-9.296984673E0,3.294421434E0
8.389356948E0,-2.920926213E-1,-9.289801598E0,3.318363667E0
8.399356948E0,-2.729389966E-1,-9.306561470E0,3.371036053E0
8.409356948E0,-2.537853718E-1,-9.320926666E0,3.392583847E0
8.419356948E0,-2.561795712E-1,-9.299378395E0,3.378218651E0
8.429356948E0,-3.136404157E-1,-9.268254280E0,3.349488258E0
8.439356948E0,-3.567360640E-1,-9.251494408E0,3.292027235E0
8.449357214E0,-3.830722570E-1,-9.251494408E0,3.282450438E0
8.459357214E0,-3.519476354E-1,-9.258677483E0,3.296815634E0
8.469357214E0,-3.519476354E-1,-9.273042679E0,3.315969467E0
8.479357214E0,-3.088520169E-1,-9.265859604E0,3.337517262E0
8.489357214E0,-2.657563984E-1,-9.301773071E0,3.375824451E0
8.499356914E0,-2.537853718E-1,-9.316138268E0,3.349488258E0
8.509356914E0,-2.011129409E-1,-9.299378395E0,3.373430252E0
8.519356914E0,-1.843535304E-1,-9.282619476E0,3.375824451E0
8.529356914E0,-9.576806426E-2,-9.241917610E0,3.349488258E0
8.539356914E0,-6.703764945E-2,-9.239523888E0,3.371036053E0
8.549356914E0,-3.351882473E-2,-9.222764015E0,3.344699860E0
8.559357180E0,-7.182604820E-2,-9.220370293E0,3.337517262E0
8.569357180E0,-9.576806426E-2,-9.239523888E0,3.303998232E0
8.579357180E0,-1.125274822E-1,-9.225158691E0,3.294421434E0
8.589357180E0,-1.388636976E-1,-9.258677483E0,3.270479441E0
8.599357180E0,-1.460463107E-1,-9.258677483E0,3.270479441E0
8.609356913E0,-1.292868853E-1,-9.256282806E0,3.287238836E0
8.619356913E0,-1.340752989E-1,-9.256282806E0,3.275267839E0
8.629356913E0,-1.675941199E-1,-9.337685585E0,3.244143248E0
8.639356913E0,-2.202665508E-1,-9.335291862E0,3.205836058E0
8.649356913E0,-2.298433632E-1,-9.373599052E0,3.196259260E0
8.659356913E0,-2.322375625E-1,-9.387964249E0,3.191470861E0
8.669356913E0,-2.585737705E-1,-9.332897186E0,3.234566450E0
8.679356913E0,-2.681505978E-1,-9.306561470E0,3.268085241E0
8.689356913E0,-2.920926213E-1,-9.280224800E0,3.260902643E0
8.699357213E0,-3.160346150E-1,-9.273042679E0,3.215412855E0
8.709357213E0,-3.208230138E-1,-9.249100685E0,3.198653460E0
8.719357213E0,-3.232172430E-1,-9.237129211E0,3.203441858E0
8.729357213E0,-3.088520169E-1,-9.234735489E0,3.299209833E0
8.739357213E0,-2.729389966E-1,-9.261071205E0,3.371036053E0
8.749356946E0,-2.681505978E-1,-9.268254280E0,3.385401249E0
8.759356946E0,-2.801215947E-1,-9.301773071E0,3.347094059E0
8.769356946E0,-2.920926213E-1,-9.347262383E0,3.277662039E0
8.779356946E0,-3.016694188E-1,-9.352050781E0,3.258508444E0
8.789356946E0,-3.280056417E-1,-9.299378395E0,3.205836058E0
8.799356946E0,-3.327940404E-1,-9.244312286E0,3.189076662E0
8.809357212E0,-3.495534360E-1,-9.182063103E0,3.256114244E0
8.819357478E0,-3.591302633E-1,-9.162909508E0,3.299209833E0
8.829357478E0,-3.256114423E-1,-9.148544312E0,3.315969467E0
8.839357478E0,-3.303998411E-1,-9.172486305E0,3.294421434E0
8.849357478E0,-3.208230138E-1,-9.217975616E0,3.277662039E0
8.859357211E0,-3.160346150E-1,-9.237129211E0,3.299209833E0
8.869357211E0,-3.471592367E-1,-9.285013199E0,3.344699860E0
8.879357211E0,-3.758896589E-1,-9.282619476E0,3.373430252E0
8.889357211E0,-3.639186621E-1,-9.340080261E0,3.366247654E0
8.899357211E0,-3.734954596E-1,-9.378387451E0,3.342305660E0
8.909357211E0,-3.639186621E-1,-9.438241959E0,3.275267839E0
8.919357211E0,-3.615244627E-1,-9.407117844E0,3.246537447E0
8.929357211E0,-3.447650373E-1,-9.378387451E0,3.239354849E0
8.939357211E0,-3.399766386E-1,-9.375992775E0,3.265691042E0
8.949357511E0,-2.992752194E-1,-9.311349869E0,3.306392431E0
8.959357511E0,-2.968810201E-1,-9.246706009E0,3.299209833E0
8.969357511E0,-3.040636182E-1,-9.251494408E0,3.272873640E0
8.979357511E0,-2.968810201E-1,-9.246706009E0,3.256114244E0
8.989357511E0,-2.298433632E-1,-9.241917610E0,3.229778051E0
8.999357211E0,-2.106897533E-1,-9.273042679E0,3.213018656E0
9.009357211E0,-2.513911724E-1,-9.304166794E0,3.157952070E0
9.019357211E0,-2.418143749E-1,-9.275436401E0,3.155557871E0
9.029357211E0,-1.963245422E-1,-9.244312286E0,3.181894064E0
9.039357211E0,-1.723825186E-1,-9.244312286E0,3.227383852E0
9.049357211E0,-1.843535304E-1,-9.241917610E0,3.263296843E0
9.059357477E0,-1.699883193E-1,-9.232340813E0,3.303998232E0
9.069357477E0,-2.322375625E-1,-9.253889084E0,3.299209833E0
9.079357477E0,-2.681505978E-1,-9.280224800E0,3.287238836E0
9.089357477E0,-2.705447972E-1,-9.265859604E0,3.313575268E0
9.099357477E0,-3.040636182E-1,-9.285013199E0,3.280056238E0
9.109357210E0,-3.184288144E-1,-9.280224800E0,3.256114244E0
9.119356943E0,-3.112462163E-1,-9.280224800E0,3.227383852E0
9.129356943E0,-2.035071403E-1,-9.296984673E0,3.359065056E0
9.139356943E0,-1.795651317E-1,-9.299378395E0,3.277662039E0
9.149356943E0,-2.920926213E-1,-9.320926666E0,3.354276657E0
9.159356943E0,-2.657563984E-1,-9.337685585E0,3.347094059E0
9.169356943E0,-2.825157940E-1,-9.378387451E0,3.311181068E0
9.179356943E0,-2.968810201E-1,-9.397541046E0,3.260902643E0
9.189356943E0,-2.992752194E-1,-9.364022255E0,3.160346270E0
9.199357243E0,-3.495534360E-1,-9.301773071E0,3.136404276E0
9.209357243E0,-3.399766386E-1,-9.220370293E0,3.083731890E0
9.219357243E0,-3.160346150E-1,-9.177274704E0,3.112462282E0
9.229357243E0,-2.729389966E-1,-9.172486305E0,3.134010077E0
9.239357243E0,-2.681505978E-1,-9.189245224E0,3.114856482E0
9.249356943E0,-2.322375625E-1,-9.285013199E0,3.155557871E0
9.259356943E0,-2.274491638E-1,-9.375992775E0,3.184288263E0
9.269356943E0,-2.585737705E-1,-9.433453560E0,3.124433279E0
9.279357209E0,-3.280056417E-1,-9.469367027E0,3.141192675E0
9.289357209E0,-3.926490843E-1,-9.464578629E0,3.184288263E0
9.299357209E0,-3.974374831E-1,-9.457395554E0,3.203441858E0
9.309357475E0,-4.525041282E-1,-9.431059837E0,3.181894064E0
9.319357475E0,-4.548983276E-1,-9.440636635E0,3.167528868E0
9.329357475E0,-4.165911078E-1,-9.478943825E0,3.157952070E0
9.339357475E0,-3.782838583E-1,-9.502885818E0,3.124433279E0
9.349357475E0,-3.495534360E-1,-9.557952881E0,3.028665066E0
9.359357208E0,-3.806780577E-1,-9.538799286E0,3.009511471E0
9.369357208E0,-4.285621047E-1,-9.531616211E0,3.028665066E0
9.379357208E0,-4.333505034E-1,-9.512462616E0,3.052607059E0
9.389357208E0,-4.405331016E-1,-9.435848236E0,3.083731890E0
9.399357208E0,-3.830722570E-1,-9.387964249E0,3.145981073E0
9.409357208E0,-3.208230138E-1,-9.299378395E0,3.134010077E0
9.419357208E0,-2.657563984E-1,-9.258677483E0,3.119644880E0
9.429357208E0,-1.580173075E-1,-9.232340813E0,3.102885485E0
9.439357208E0,-1.556231081E-1,-9.277831078E0,3.081337690E0
9.449357474E0,-1.532289088E-1,-9.342473984E0,3.078943491E0
9.459357474E0,-1.867477298E-1,-9.395146370E0,3.081337690E0
9.469357474E0,-2.729389966E-1,-9.517251015E0,3.059789658E0
9.479357474E0,-3.303998411E-1,-9.567529678E0,3.007117271E0
9.489357474E0,-4.118026793E-1,-9.653720856E0,2.975992680E0
9.499357174E0,-4.309563041E-1,-9.672874451E0,2.949656487E0
9.509357174E0,-4.716577232E-1,-9.672874451E0,2.904166698E0
9.519357174E0,-4.501099288E-1,-9.660902977E0,2.853888512E0
9.529357174E0,-4.165911078E-1,-9.567529678E0,2.750937700E0
9.539357174E0,-3.926490843E-1,-9.534010887E0,2.707842112E0
9.549357174E0,-3.878606856E-1,-9.466972351E0,2.722207308E0
9.559357440E0,-4.070142806E-1,-9.459790230E0,2.774879694E0
9.569357440E0,-4.165911078E-1,-9.445425034E0,2.822763920E0
9.579357173E0,-4.237737060E-1,-9.445425034E0,2.918531895E0
9.589357173E0,-3.112462163E-1,-9.375992775E0,2.990357876E0
9.599357173E0,-2.753331959E-1,-9.342473984E0,3.045424461E0
9.609356906E0,-1.340752989E-1,-9.237129211E0,3.069366693E0
9.619356906E0,-7.900865376E-2,-9.167697906E0,3.102885485E0
9.629356906E0,-2.873042040E-2,-9.225158691E0,3.019088268E0
9.639356906E0,0.000000000E0,-9.232340813E0,2.947262287E0
9.649356906E0,1.675941236E-2,-9.320926666E0,2.873042107E0
9.659356906E0,-1.675941236E-2,-9.387964249E0,2.851494312E0
9.669356906E0,-3.351882473E-2,-9.488520622E0,2.916137695E0
9.679356906E0,2.633621916E-2,-9.524434090E0,3.007117271E0
9.689356906E0,2.059013397E-1,-9.548376083E0,3.019088268E0
9.699357172E0,2.418143749E-1,-9.534010887E0,3.009511471E0
9.709357172E0,3.064578176E-1,-9.610625267E0,3.047818661E0
9.719357172E0,4.548983276E-1,-9.672874451E0,2.999934673E0
9.729357172E0,7.900865674E-1,-9.682451248E0,2.925714493E0
9.739357172E0,1.010353088E0,-9.617807388E0,2.863465309E0
9.749356905E0,1.285686255E0,-9.411906242E0,2.916137695E0
9.759356905E0,1.436521053E0,-9.208398819E0,2.985569477E0
9.769356905E0,1.563413739E0,-8.940248489E0,3.181894064E0
9.779356905E0,1.549048543E0,-8.894758224E0,3.193865061E0
9.789356905E0,1.273715258E0,-8.789413452E0,3.246537447E0
9.799356905E0,9.385270476E-1,-8.631396294E0,3.392583847E0
9.809357171E0,1.675941199E-1,-8.624214172E0,3.576937437E0
9.819357171E0,-2.561795712E-1,-8.739135742E0,3.646369219E0
9.829357171E0,-9.217676520E-1,-8.906729698E0,3.545812607E0
9.839357171E0,-1.295263171E0,-9.000102997E0,3.459621429E0
9.849357171E0,-1.893813491E0,-9.088688850E0,3.117250681E0
9.859356904E0,-2.027888775E0,-9.208398819E0,2.822763920E0
9.869356904E0,-2.059013367E0,-9.428665161E0,2.293645144E0
9.879356904E0,-1.793257117E0,-9.672874451E0,2.102109194E0
9.889356904E0,-1.527500629E0,-9.905111313E0,1.738190413E0
9.899356904E0,-1.510741234E0,-1.000806236E1,1.716642618E0
9.909356904E0,-1.450886250E0,-1.010383034E1,1.872265697E0
9.919356904E0,-1.412579060E0,-1.011340714E1,2.018311977E0
9.929356904E0,-1.419761658E0,-1.016129112E1,2.286462545E0
9.939356904E0,-1.422155857E0,-1.015650272E1,2.425326347E0
9.949357170E0,-1.393425345E0,-1.022354031E1,2.557007313E0
9.959357170E0,-1.403002143E0,-1.019720459E1,2.518700123E0
9.969357170E0,-1.259350061E0,-1.015410900E1,2.415749550E0
9.979357170E0,-1.132457376E0,-1.009425354E1,2.284068346E0
9.989357170E0,-8.547300100E-1,-9.967360497E0,2.008735180E0
9.999356903E0,-7.206547260E-1,-9.859622002E0,1.819593310E0
1.000935690E1,-4.572925270E-1,-9.711181641E0,1.750161409E0
1.001935690E1,-3.136404157E-1,-9.632172585E0,1.757344007E0
1.002935690E1,-1.987187415E-1,-9.488520622E0,1.798045516E0
1.003935690E1,-1.628057212E-1,-9.390357971E0,1.869871497E0
1.004935690E1,-1.149216816E-1,-9.225158691E0,2.032677174E0
1.005935717E1,-1.484405100E-1,-9.110237122E0,2.135627985E0
1.006935717E1,-2.059013397E-1,-9.009679794E0,2.284068346E0
1.007935717E1,-2.346317619E-1,-8.995314598E0,2.341529369E0
1.008935717E1,-3.160346150E-1,-8.957007408E0,2.334346771E0
1.009935717E1,-3.184288144E-1,-8.978555679E0,2.319981337E0
1.010935690E1,-2.801215947E-1,-9.069535255E0,2.298433542E0
1.011935690E1,-2.801215947E-1,-9.167697906E0,2.250549555E0
1.012935690E1,-2.370259613E-1,-9.383175850E0,2.087743998E0
1.013935690E1,-2.011129409E-1,-9.481337547E0,1.965639591E0
1.014935690E1,-7.422025502E-2,-9.605836868E0,1.795651317E0
1.015935690E1,4.788403213E-2,-9.648932457E0,1.831564307E0
1.016935690E1,1.867477298E-1,-9.557952881E0,1.908178806E0
1.017935690E1,1.867477298E-1,-9.464578629E0,1.936909199E0
1.018935690E1,9.576806426E-2,-9.340080261E0,2.161964178E0
1.019935717E1,5.985504389E-2,-9.304166794E0,2.308010340E0
1.020935717E1,-1.077390760E-1,-9.268254280E0,2.454056740E0
1.021935717E1,-2.920926213E-1,-9.263465881E0,2.535459518E0
1.022935717E1,-4.908113480E-1,-9.366415977E0,2.583343744E0
1.023935717E1,-5.578489900E-1,-9.498097420E0,2.489969730E0
1.024935690E1,-4.525041282E-1,-9.689633369E0,2.298433542E0
1.025935690E1,-3.567360640E-1,-9.847650528E0,2.245761156E0
1.026935690E1,-2.178723514E-1,-1.004397583E1,2.128445387E0
1.027935690E1,-1.316810995E-1,-1.011101341E1,2.073378563E0
1.028935690E1,-7.900865376E-2,-1.021875191E1,2.085349798E0
1.029935690E1,-2.394201607E-2,-1.023551178E1,2.149993181E0
1.030935717E1,-8.858546615E-2,-1.012537861E1,2.303221941E0
1.031935717E1,-1.963245422E-1,-1.001763916E1,2.415749550E0
1.032935717E1,-4.477157295E-1,-9.711181641E0,2.657563925E0
1.033935717E1,-4.860229492E-1,-9.522039413E0,2.688688517E0
1.034935717E1,-4.022258818E-1,-9.289801598E0,2.710236311E0
1.035935690E1,-2.346317619E-1,-9.217975616E0,2.710236311E0
1.036935690E1,-3.591302410E-2,-9.174880028E0,2.691082716E0
1.037935690E1,5.985504389E-2,-9.229947090E0,2.681505919E0
1.038935717E1,2.537853718E-1,-9.344868660E0,2.580949545E0
1.039935717E1,3.591302633E-1,-9.447818756E0,2.530671120E0
1.040935717E1,4.309563041E-1,-9.565135002E0,2.331952572E0
1.041935717E1,3.998316824E-1,-9.603442192E0,2.262520552E0
1.042935717E1,3.782838583E-1,-9.577106476E0,2.123656988E0
1.043935717E1,3.160346150E-1,-9.519645691E0,2.039859772E0
1.044935743E1,2.537853718E-1,-9.402329445E0,1.982398987E0
1.045935743E1,2.394201756E-1,-9.361627579E0,1.939303398E0
1.046935743E1,1.221042871E-1,-9.308955193E0,1.862688899E0
1.047935743E1,-1.197100803E-2,-9.296984673E0,1.862688899E0
1.048935743E1,-2.059013397E-1,-9.373599052E0,1.853112102E0
1.049935717E1,-2.729389966E-1,-9.414299965E0,1.934514999E0
1.050935716E1,-4.022258818E-1,-9.486125946E0,2.039859772E0
1.051935716E1,-4.237737060E-1,-9.519645691E0,2.090138197E0
1.052935716E1,-3.902548850E-1,-9.548376083E0,2.209848166E0
1.053935716E1,-3.758896589E-1,-9.536404610E0,2.238578558E0
1.054935716E1,-4.118026793E-1,-9.522039413E0,2.267308950E0
1.055935743E1,-4.141969085E-1,-9.478943825E0,2.298433542E0
1.056935743E1,-4.405331016E-1,-9.438241959E0,2.348711967E0
1.057935743E1,-4.213795066E-1,-9.399934769E0,2.398990154E0
1.058935743E1,-5.363011956E-1,-9.356839180E0,2.430114746E0
1.059935743E1,-6.224924326E-1,-9.318531990E0,2.487575531E0
1.060935716E1,-7.517793179E-1,-9.273042679E0,2.600103140E0
1.061935716E1,-8.331822157E-1,-9.296984673E0,2.607285738E0
1.062935716E1,-9.050082564E-1,-9.421483040E0,2.583343744E0
1.063935716E1,-7.829039693E-1,-9.534010887E0,2.425326347E0
1.064935716E1,-7.876923680E-1,-9.730335236E0,2.123656988E0
1.065935716E1,-8.906430602E-1,-9.897929192E0,2.047042370E0
1.066935716E1,-1.031900883E0,-1.008467674E1,1.984793186E0
1.067935716E1,-1.103726983E0,-1.009904194E1,2.061407566E0
1.068935690E1,-1.065419793E0,-1.000327396E1,2.099714994E0
1.069935716E1,-9.864110947E-1,-9.854833603E0,2.142810583E0
1.070935716E1,-8.643068075E-1,-9.596260071E0,2.336740971E0
1.071935716E1,-6.536170840E-1,-9.481337547E0,2.597708941E0
1.072935716E1,-4.189853072E-1,-9.239523888E0,2.427720547E0
1.073935716E1,-2.849099934E-1,-9.203610420E0,2.568978310E0
1.074935690E1,-2.130839527E-1,-9.131784439E0,2.741360903E0
1.075935690E1,-1.460463107E-1,-9.131784439E0,2.652775526E0
1.076935690E1,-6.464344263E-2,-9.294589996E0,2.820369720E0
1.077935690E1,9.576806426E-2,-9.399934769E0,2.935291290E0
1.078935690E1,3.016694188E-1,-9.577106476E0,3.081337690E0
1.079935690E1,3.734954596E-1,-9.598653793E0,3.040636063E0
1.080935716E1,3.184288144E-1,-9.531616211E0,2.875436306E0
1.081935716E1,2.442085743E-1,-9.423876762E0,2.782062292E0
1.082935716E1,7.422025502E-2,-9.335291862E0,2.846705914E0
1.083935716E1,-5.746084079E-2,-9.249100685E0,2.913743496E0
1.084935716E1,-1.244984865E-1,-9.153332710E0,2.956839085E0
1.085935690E1,-2.489969730E-1,-9.134179115E0,2.983175278E0
1.086935690E1,-4.070142806E-1,-9.285013199E0,2.999934673E0
1.087935690E1,-4.525041282E-1,-9.387964249E0,2.944868088E0
1.088935690E1,-4.453215301E-1,-9.536404610E0,2.906560898E0
1.089935690E1,-3.758896589E-1,-9.615413666E0,2.973598480E0
1.090935690E1,-3.519476354E-1,-9.648932457E0,3.205836058E0
1.091935690E1,-3.375824392E-1,-9.608230591E0,3.220201254E0
1.092935690E1,-3.711012602E-1,-9.474155426E0,3.081337690E0
1.093935690E1,-3.232172430E-1,-9.404723167E0,3.002328873E0
1.094935716E1,-2.250549644E-1,-9.385569572E0,2.947262287E0
1.095935716E1,-1.580173075E-1,-9.340080261E0,2.887407303E0
1.096935716E1,-1.364694983E-1,-9.332897186E0,2.920926094E0
1.097935716E1,-1.292868853E-1,-9.301773071E0,2.980781078E0
1.098935716E1,-8.858546615E-2,-9.313743591E0,3.124433279E0
1.099935689E1,-7.900865376E-2,-9.306561470E0,3.239354849E0
1.100935689E1,-1.197100878E-1,-9.325715065E0,3.191470861E0
1.101935689E1,-1.508347094E-1,-9.368810654E0,3.124433279E0
1.102935689E1,-1.771709323E-1,-9.512462616E0,2.913743496E0
1.103935689E1,-2.106897533E-1,-9.574711800E0,2.839523315E0
1.104935689E1,-3.160346150E-1,-9.701604843E0,2.750937700E0
1.105935716E1,-3.734954596E-1,-9.787796021E0,2.736572504E0
1.106935716E1,-4.213795066E-1,-9.885957718E0,2.724601507E0
1.107935716E1,-4.525041282E-1,-9.921871185E0,2.686294317E0
1.108935716E1,-3.615244627E-1,-9.984120369E0,2.626439333E0
1.109935716E1,-2.729389966E-1,-9.984120369E0,2.566584110E0
1.110935689E1,-1.149216816E-1,-9.979331970E0,2.451662540E0
1.111935689E1,-1.197100803E-2,-9.893140793E0,2.430114746E0
1.112935689E1,1.580173075E-1,-9.660902977E0,2.482787132E0
1.113935689E1,2.274491638E-1,-9.519645691E0,2.576161146E0
1.114935689E1,2.992752194E-1,-9.273042679E0,2.707842112E0
1.115935689E1,3.327940404E-1,-9.143755913E0,2.786850691E0
1.116935689E1,3.782838583E-1,-9.036016464E0,2.904166698E0
1.117935689E1,4.046200812E-1,-9.004891396E0,2.949656487E0
1.118935689E1,4.333505034E-1,-8.997709274E0,2.999934673E0
1.119935716E1,4.501099288E-1,-9.036016464E0,3.019088268E0
1.120935716E1,4.525041282E-1,-9.124602318E0,2.978386879E0
1.121935716E1,3.663128614E-1,-9.170091629E0,2.940079689E0
1.122935716E1,3.447650373E-1,-9.304166794E0,2.952050686E0
1.123935716E1,3.663128614E-1,-9.359233856E0,3.011905670E0
1.124935689E1,2.633621991E-1,-9.378387451E0,2.947262287E0
1.125935689E1,1.771709323E-1,-9.385569572E0,2.906560898E0
1.126935689E1,1.173158810E-1,-9.395146370E0,2.844311714E0
1.127935689E1,5.506663769E-2,-9.431059837E0,2.810792685E0
1.128935689E1,-3.351882473E-2,-9.443030357E0,2.832340717E0
1.129935689E1,-7.422025502E-2,-9.435848236E0,2.889801502E0
1.130935716E1,-1.173158810E-1,-9.435848236E0,2.925714493E0
1.131935716E1,-7.661445439E-2,-9.431059837E0,2.935291290E0
1.132935716E1,-5.746084079E-2,-9.464578629E0,2.908955097E0
1.133935716E1,-3.351882473E-2,-9.490914345E0,2.899378300E0
1.134935716E1,-2.633621916E-2,-9.514857292E0,2.954444885E0
1.135935689E1,-2.154781483E-2,-9.512462616E0,2.985569477E0
1.136935689E1,1.436521020E-2,-9.481337547E0,3.023876667E0
1.137935689E1,1.915361360E-2,-9.462183952E0,3.023876667E0
1.138935689E1,3.112462163E-2,-9.409511566E0,2.997540474E0
1.139935689E1,5.027823523E-2,-9.383175850E0,2.983175278E0
1.140935689E1,5.027823523E-2,-9.347262383E0,2.992752075E0
1.141935689E1,5.506663769E-2,-9.306561470E0,2.975992680E0
1.142935689E1,7.182604820E-2,-9.275436401E0,2.952050686E0
1.143935689E1,5.985504389E-2,-9.268254280E0,2.954444885E0
1.144935716E1,1.053448766E-1,-9.289801598E0,2.923320293E0
1.145935716E1,1.053448766E-1,-9.282619476E0,2.925714493E0
1.146935716E1,1.987187415E-1,-9.311349869E0,2.940079689E0
1.147935716E1,2.154781520E-1,-9.340080261E0,2.913743496E0
1.148935716E1,2.250549644E-1,-9.373599052E0,2.928108692E0
1.149935689E1,2.106897533E-1,-9.392752647E0,2.937685490E0
1.150935689E1,1.508347094E-1,-9.416694641E0,2.906560898E0
1.151935689E1,1.699883193E-1,-9.411906242E0,2.889801502E0
1.152935689E1,1.268926859E-1,-9.387964249E0,2.841917515E0
1.153935689E1,9.816227108E-2,-9.373599052E0,2.863465309E0
1.154935689E1,-4.788403399E-3,-9.347262383E0,2.882618904E0
1.155935692E1,-3.591302410E-2,-9.359233856E0,2.911349297E0
1.156935692E1,-1.915361360E-2,-9.395146370E0,2.973598480E0
1.157935692E1,0.000000000E0,-9.404723167E0,2.999934673E0
1.158935692E1,0.000000000E0,-9.419088364E0,2.956839085E0
1.159935692E1,-1.675941236E-2,-9.433453560E0,2.916137695E0
1.160935666E1,-2.394201700E-3,-9.440636635E0,2.882618904E0
1.161935666E1,7.182605099E-3,-9.447818756E0,2.885013103E0
1.162935666E1,1.436521020E-2,-9.445425034E0,2.923320293E0
1.163935666E1,1.915361360E-2,-9.421483040E0,2.908955097E0
1.164935666E1,7.900865376E-2,-9.433453560E0,2.935291290E0
1.165935666E1,5.267243832E-2,-9.402329445E0,2.937685490E0
1.166935666E1,1.915361360E-2,-9.352050781E0,2.944868088E0
1.167935666E1,-1.915361360E-2,-9.347262383E0,2.944868088E0
1.168935666E1,-2.394201607E-2,-9.414299965E0,3.028665066E0
1.169935692E1,-1.915361360E-2,-9.421483040E0,3.045424461E0
1.170935692E1,5.506663769E-2,-9.464578629E0,3.059789658E0
1.171935692E1,3.112462163E-2,-9.452607155E0,3.009511471E0
1.172935692E1,9.576806799E-3,-9.481337547E0,2.980781078E0
1.173935692E1,-6.943184882E-2,-9.464578629E0,2.928108692E0
1.174935666E1,-1.221042871E-1,-9.476549149E0,2.906560898E0
1.175935666E1,-1.149216816E-1,-9.469367027E0,2.896984100E0
1.176935666E1,-1.221042871E-1,-9.450213432E0,2.911349297E0
1.177935666E1,-1.388636976E-1,-9.455001831E0,2.928108692E0
1.178935666E1,-1.651999205E-1,-9.459790230E0,2.947262287E0
1.179935666E1,-1.843535304E-1,-9.462183952E0,2.971204281E0
1.180935692E1,-1.244984865E-1,-9.495702744E0,2.983175278E0
1.181935692E1,-1.053448766E-1,-9.502885818E0,2.987963676E0
1.182935692E1,-9.576806426E-2,-9.495702744E0,3.009511471E0
1.183935692E1,-9.576806426E-2,-9.474155426E0,3.031059265E0
1.184935692E1,-7.182604820E-2,-9.387964249E0,3.052607059E0
1.185935689E1,-5.985504389E-2,-9.352050781E0,3.078943491E0
1.186935689E1,-3.351882473E-2,-9.285013199E0,3.083731890E0
1.187935689E1,-3.112462163E-2,-9.280224800E0,3.066972494E0
1.188935689E1,-3.591302410E-2,-9.246706009E0,2.999934673E0
1.189935689E1,-1.197100803E-2,-9.265859604E0,2.987963676E0
1.190935689E1,-3.830722719E-2,-9.241917610E0,2.999934673E0
1.191935715E1,-4.788403213E-2,-9.273042679E0,2.999934673E0
1.192935715E1,-5.506663769E-2,-9.256282806E0,3.011905670E0
1.193935715E1,-7.900865376E-2,-9.270648003E0,2.999934673E0
1.194935742E1,-6.464344263E-2,-9.328108788E0,3.009511471E0
1.195935742E1,-7.182604820E-2,-9.320926666E0,3.004723072E0
1.196935742E1,-1.149216816E-1,-9.361627579E0,2.932897091E0
1.197935742E1,-1.125274822E-1,-9.371204376E0,2.923320293E0
1.198935742E1,-1.436520964E-1,-9.352050781E0,2.875436306E0
1.199935715E1,-1.508347094E-1,-9.335291862E0,2.877830505E0
1.200935715E1,-1.915361285E-1,-9.332897186E0,2.882618904E0
1.201935715E1,-2.035071403E-1,-9.337685585E0,2.925714493E0
1.202935715E1,-2.849099934E-1,-9.320926666E0,2.952050686E0
1.203935715E1,-2.968810201E-1,-9.330503464E0,2.940079689E0
1.204935715E1,-3.160346150E-1,-9.411906242E0,2.932897091E0
1.205935742E1,-2.896983922E-1,-9.445425034E0,2.940079689E0
1.206935742E1,-2.489969730E-1,-9.478943825E0,2.961627483E0
1.207935742E1,-1.963245422E-1,-9.517251015E0,2.978386879E0
1.208935742E1,-1.819593310E-1,-9.481337547E0,2.978386879E0
1.209935742E1,-1.532289088E-1,-9.474155426E0,2.975992680E0
1.210935715E1,-1.268926859E-1,-9.428665161E0,2.918531895E0
1.211935715E1,-1.149216816E-1,-9.431059837E0,2.916137695E0
1.212935715E1,-9.337386489E-2,-9.471760750E0,2.964021683E0
1.213935715E1,-7.422025502E-2,-9.483732224E0,2.964021683E0
1.214935715E1,-4.548983276E-2,-9.545981407E0,3.014299870E0
1.215935715E1,-3.112462163E-2,-9.524434090E0,2.964021683E0
1.216935715E1,-3.351882473E-2,-9.545981407E0,2.944868088E0
1.217935715E1,-6.943184882E-2,-9.474155426E0,2.932897091E0
1.218935715E1,-1.316810995E-1,-9.328108788E0,2.920926094E0
1.219935745E1,-1.891419291E-1,-9.229947090E0,2.942473888E0
1.220935745E1,-1.675941199E-1,-9.074323654E0,2.995146275E0
1.221935718E1,-1.460463107E-1,-9.052776337E0,3.043030262E0
1.222935718E1,-1.580173075E-1,-9.045593262E0,3.031059265E0
1.223935718E1,-1.628057212E-1,-9.064746857E0,2.992752075E0
1.224935692E1,-1.268926859E-1,-9.143755913E0,2.896984100E0
1.225935692E1,-1.316810995E-1,-9.179668427E0,2.882618904E0
1.226935692E1,-1.508347094E-1,-9.227552414E0,2.889801502E0
1.227935692E1,-1.723825186E-1,-9.225158691E0,2.937685490E0
1.228935692E1,-2.346317619E-1,-9.222764015E0,3.002328873E0
1.229935692E1,-2.585737705E-1,-9.304166794E0,2.999934673E0
1.230935718E1,-2.992752194E-1,-9.371204376E0,3.069366693E0
1.231935718E1,-3.160346150E-1,-9.378387451E0,3.100491285E0
1.232935718E1,-3.447650373E-1,-9.375992775E0,3.124433279E0
1.233935718E1,-3.782838583E-1,-9.397541046E0,3.098097086E0
1.234935718E1,-3.782838583E-1,-9.428665161E0,3.007117271E0
1.235935692E1,-3.639186621E-1,-9.450213432E0,2.947262287E0
1.236935692E1,-3.423708379E-1,-9.462183952E0,2.887407303E0
1.237935692E1,-3.567360640E-1,-9.466972351E0,2.875436306E0
1.238935692E1,-3.663128614E-1,-9.469367027E0,2.846705914E0
1.239935692E1,-3.663128614E-1,-9.450213432E0,2.861071110E0
1.240935692E1,-3.208230138E-1,-9.498097420E0,2.901772499E0
1.241935692E1,-2.825157940E-1,-9.495702744E0,2.947262287E0
1.242935692E1,-2.370259613E-1,-9.447818756E0,2.944868088E0
1.243935692E1,-2.418143749E-1,-9.435848236E0,2.940079689E0
1.244935718E1,-2.154781520E-1,-9.359233856E0,2.937685490E0
1.245935718E1,-1.771709323E-1,-9.359233856E0,2.930502892E0
1.246935718E1,-1.221042871E-1,-9.340080261E0,2.949656487E0
1.247935718E1,-8.858546615E-2,-9.344868660E0,2.961627483E0
1.248935718E1,-3.112462163E-2,-9.268254280E0,2.947262287E0
1.249935688E1,-5.746084079E-2,-9.263465881E0,2.930502892E0
1.250935688E1,-6.464344263E-2,-9.289801598E0,2.899378300E0
1.251935688E1,-1.077390760E-1,-9.270648003E0,2.846705914E0
1.252935688E1,-1.867477298E-1,-9.244312286E0,2.853888512E0
1.253935688E1,-1.436520964E-1,-9.237129211E0,2.892195702E0
1.254935688E1,-1.628057212E-1,-9.225158691E0,2.913743496E0
1.255935715E1,-1.675941199E-1,-9.253889084E0,2.901772499E0
1.256935715E1,-1.747767180E-1,-9.277831078E0,2.920926094E0
1.257935715E1,-1.604115069E-1,-9.320926666E0,2.940079689E0
1.258935715E1,-1.077390760E-1,-9.332897186E0,2.959233284E0
1.259935715E1,-1.053448766E-1,-9.352050781E0,2.940079689E0
1.260935688E1,-1.125274822E-1,-9.383175850E0,2.932897091E0
1.261935688E1,-1.795651317E-1,-9.359233856E0,2.952050686E0
1.262935688E1,-1.771709323E-1,-9.368810654E0,2.983175278E0
1.263935688E1,-1.771709323E-1,-9.378387451E0,2.975992680E0
1.264935688E1,-2.130839527E-1,-9.426271439E0,2.995146275E0
1.265935688E1,-1.891419291E-1,-9.426271439E0,2.956839085E0
1.266935688E1,-1.987187415E-1,-9.443030357E0,2.923320293E0
1.267935688E1,-1.843535304E-1,-9.450213432E0,2.913743496E0
1.268935688E1,-2.011129409E-1,-9.433453560E0,2.930502892E0
1.269935691E1,-2.178723514E-1,-9.416694641E0,2.961627483E0
1.270935691E1,-1.819593310E-1,-9.423876762E0,2.920926094E0
1.271935691E1,-1.292868853E-1,-9.414299965E0,2.935291290E0
1.272935691E1,-1.053448766E-1,-9.371204376E0,2.940079689E0
1.273935691E1,-7.182604820E-2,-9.359233856E0,2.952050686E0
1.274935665E1,-6.464344263E-2,-9.328108788E0,2.959233284E0
1.275935665E1,-8.140286058E-2,-9.311349869E0,2.956839085E0
1.276935665E1,-1.149216816E-1,-9.347262383E0,2.937685490E0
1.277935665E1,-1.508347094E-1,-9.364022255E0,2.904166698E0
1.278935665E1,-1.556231081E-1,-9.411906242E0,2.896984100E0
1.279935665E1,-1.915361285E-1,-9.387964249E0,2.889801502E0
1.280935691E1,-1.628057212E-1,-9.366415977E0,2.873042107E0
1.281935691E1,-1.795651317E-1,-9.328108788E0,2.849100113E0
1.282935691E1,-1.867477298E-1,-9.330503464E0,2.832340717E0
1.283935691E1,-2.130839527E-1,-9.323320389E0,2.856282711E0
1.284935691E1,-1.675941199E-1,-9.354445457E0,2.858676910E0
1.285935665E1,-1.604115069E-1,-9.371204376E0,2.875436306E0
1.286935665E1,-1.005564705E-1,-9.373599052E0,2.894589901E0
1.287935665E1,-9.576806426E-2,-9.342473984E0,2.882618904E0
1.288935665E1,-1.101332754E-1,-9.270648003E0,2.861071110E0
1.289935665E1,-8.140286058E-2,-9.256282806E0,2.885013103E0
1.290935665E1,-5.267243832E-2,-9.253889084E0,2.944868088E0
1.291935665E1,-6.464344263E-2,-9.251494408E0,2.968810081E0
1.292935665E1,-5.506663769E-2,-9.296984673E0,2.971204281E0
1.293935665E1,-3.351882473E-2,-9.306561470E0,2.952050686E0
1.294935691E1,-7.182605099E-3,-9.328108788E0,2.923320293E0
1.295935691E1,-2.394201700E-3,-9.292196274E0,2.937685490E0
1.296935691E1,-1.197100803E-2,-9.282619476E0,2.892195702E0
1.297935691E1,2.394201607E-2,-9.287407875E0,2.868253708E0
1.298935691E1,2.873042040E-2,-9.280224800E0,2.908955097E0
1.299935688E1,-3.591302410E-2,-9.268254280E0,2.930502892E0
1.300935688E1,-1.053448766E-1,-9.253889084E0,2.928108692E0
1.301935688E1,-1.268926859E-1,-9.285013199E0,2.944868088E0
1.302935688E1,-7.182604820E-2,-9.332897186E0,2.971204281E0
1.303935688E1,-9.097966552E-2,-9.292196274E0,2.985569477E0
1.304935688E1,-8.858546615E-2,-9.294589996E0,3.007117271E0
1.305935714E1,-9.816227108E-2,-9.328108788E0,3.016694069E0
1.306935714E1,-1.125274822E-1,-9.395146370E0,3.016694069E0
1.307935714E1,-1.173158810E-1,-9.416694641E0,2.995146275E0
1.308935714E1,-1.292868853E-1,-9.481337547E0,2.961627483E0
1.309935714E1,-1.101332754E-1,-9.476549149E0,2.911349297E0
1.310935688E1,-1.795651317E-1,-9.481337547E0,2.882618904E0
1.311935688E1,-2.059013397E-1,-9.474155426E0,2.880224705E0
1.312935688E1,-2.944868207E-1,-9.519645691E0,2.889801502E0
1.313935688E1,-3.208230138E-1,-9.517251015E0,2.889801502E0
1.314935688E1,-3.615244627E-1,-9.495702744E0,2.841917515E0
1.315935688E1,-3.447650373E-1,-9.519645691E0,2.815581083E0
1.316935688E1,-2.777273953E-1,-9.471760750E0,2.810792685E0
1.317935688E1,-3.040636182E-1,-9.433453560E0,2.827552319E0
1.318935688E1,-3.016694188E-1,-9.402329445E0,2.846705914E0
1.319935718E1,-2.825157940E-1,-9.378387451E0,2.825158119E0
1.320935718E1,-2.202665508E-1,-9.361627579E0,2.786850691E0
1.321935718E1,-2.322375625E-1,-9.313743591E0,2.794033289E0
1.322935718E1,-1.699883193E-1,-9.320926666E0,2.822763920E0
1.323935744E1,-1.987187415E-1,-9.258677483E0,2.839523315E0
1.324935718E1,-2.130839527E-1,-9.220370293E0,2.849100113E0
1.325935718E1,-1.939303428E-1,-9.253889084E0,2.834734917E0
1.326935718E1,-1.675941199E-1,-9.289801598E0,2.880224705E0
1.327935718E1,-1.795651317E-1,-9.313743591E0,2.882618904E0
1.328935718E1,-1.604115069E-1,-9.337685585E0,2.894589901E0
1.329935744E1,-1.723825186E-1,-9.347262383E0,2.916137695E0
1.330935771E1,-1.604115069E-1,-9.364022255E0,2.908955097E0
1.331935771E1,-1.604115069E-1,-9.352050781E0,2.940079689E0
1.332935771E1,-1.532289088E-1,-9.349657059E0,2.868253708E0
1.333935771E1,-1.628057212E-1,-9.354445457E0,2.944868088E0
1.334935771E1,-1.532289088E-1,-9.385569572E0,3.023876667E0
1.335935744E1,-1.556231081E-1,-9.457395554E0,3.064578056E0
1.336935744E1,-1.771709323E-1,-9.522039413E0,3.047818661E0
1.337935744E1,-1.556231081E-1,-9.536404610E0,3.004723072E0
1.338935744E1,-1.364694983E-1,-9.529222488E0,2.971204281E0
1.339935744E1,-1.651999205E-1,-9.536404610E0,3.002328873E0
1.340935744E1,-1.460463107E-1,-9.534010887E0,2.983175278E0
1.341935744E1,-2.011129409E-1,-9.474155426E0,2.971204281E0
1.342935744E1,-2.011129409E-1,-9.438241959E0,2.918531895E0
1.343935744E1,-1.963245422E-1,-9.409511566E0,2.906560898E0
1.344935774E1,-1.628057212E-1,-9.335291862E0,2.913743496E0
1.345935774E1,-1.460463107E-1,-9.311349869E0,2.928108692E0
1.346935774E1,-1.125274822E-1,-9.251494408E0,2.975992680E0
1.347935774E1,-9.576806426E-2,-9.229947090E0,2.978386879E0
1.348935774E1,-1.221042871E-1,-9.208398819E0,2.971204281E0
1.349935744E1,-1.292868853E-1,-9.179668427E0,2.964021683E0
1.350935744E1,-1.173158810E-1,-9.201216698E0,3.011905670E0
1.351935744E1,-9.816227108E-2,-9.220370293E0,2.995146275E0
1.352935744E1,-9.337386489E-2,-9.263465881E0,2.990357876E0
1.353935717E1,-8.619125932E-2,-9.280224800E0,2.952050686E0
1.354935717E1,-9.337386489E-2,-9.383175850E0,2.894589901E0
1.355935744E1,-9.337386489E-2,-9.411906242E0,2.839523315E0
1.356935744E1,-1.651999205E-1,-9.433453560E0,2.719813108E0
1.357935744E1,-1.747767180E-1,-9.459790230E0,2.722207308E0
1.358935744E1,-1.556231081E-1,-9.469367027E0,2.707842112E0
1.359935717E1,-1.699883193E-1,-9.452607155E0,2.693476915E0
1.360935691E1,-1.915361285E-1,-9.404723167E0,2.669534922E0
1.361935691E1,-1.915361285E-1,-9.354445457E0,2.671929121E0
1.362935691E1,-1.340752989E-1,-9.289801598E0,2.712630510E0
1.363935691E1,-1.221042871E-1,-9.275436401E0,2.748543501E0
1.364935691E1,-1.125274822E-1,-9.244312286E0,2.758120298E0
1.365935691E1,-1.221042871E-1,-9.241917610E0,2.770091295E0
1.366935691E1,-7.422025502E-2,-9.268254280E0,2.734178305E0
1.367935691E1,-2.394201607E-2,-9.263465881E0,2.724601507E0
1.368935691E1,7.182605099E-3,-9.277831078E0,2.683900118E0
1.369935721E1,3.351882473E-2,-9.256282806E0,2.698265314E0
1.370935721E1,7.182604820E-2,-9.232340813E0,2.719813108E0
1.371935721E1,3.830722719E-2,-9.229947090E0,2.738966703E0
1.372935721E1,2.394201607E-2,-9.237129211E0,2.738966703E0
1.373935721E1,-1.197100803E-2,-9.244312286E0,2.753331900E0
1.374935691E1,-3.112462163E-2,-9.301773071E0,2.762908697E0
1.375935691E1,-4.070143029E-2,-9.313743591E0,2.738966703E0
1.376935691E1,-7.182604820E-2,-9.364022255E0,2.758120298E0
1.377935717E1,-9.816227108E-2,-9.378387451E0,2.760514498E0
1.378935717E1,-6.703764945E-2,-9.423876762E0,2.779668093E0
1.379935717E1,-6.464344263E-2,-9.464578629E0,2.791639090E0
1.380935744E1,-7.900865376E-2,-9.529222488E0,2.815581083E0
1.381935744E1,-6.703764945E-2,-9.608230591E0,2.825158119E0
1.382935744E1,-9.816227108E-2,-9.670479774E0,2.813186884E0
1.383935744E1,-7.182604820E-2,-9.703998566E0,2.817975283E0
1.384935744E1,-9.097966552E-2,-9.711181641E0,2.782062292E0
1.385935717E1,-9.816227108E-2,-9.713575363E0,2.755726099E0
1.386935717E1,-9.816227108E-2,-9.696816444E0,2.748543501E0
1.387935717E1,-1.101332754E-1,-9.646537781E0,2.741360903E0
1.388935717E1,-5.985504389E-2,-9.605836868E0,2.748543501E0
1.389935717E1,-4.070143029E-2,-9.574711800E0,2.734178305E0
1.390935717E1,1.675941236E-2,-9.550769806E0,2.762908697E0
1.391935717E1,1.915361360E-2,-9.534010887E0,2.755726099E0
1.392935717E1,7.182605099E-3,-9.507674217E0,2.715024710E0
1.393935717E1,2.394201700E-3,-9.462183952E0,2.698265314E0
1.394935744E1,1.915361360E-2,-9.387964249E0,2.724601507E0
1.395935744E1,0.000000000E0,-9.332897186E0,2.743755102E0
1.396935744E1,-7.182605099E-3,-9.275436401E0,2.803610086E0
1.397935744E1,-4.548983276E-2,-9.265859604E0,2.806004286E0
1.398935744E1,-2.394201607E-2,-9.273042679E0,2.803610086E0
1.399935714E1,-3.591302410E-2,-9.282619476E0,2.791639090E0
1.400935714E1,-5.267243832E-2,-9.320926666E0,2.755726099E0
1.401935714E1,-4.309562966E-2,-9.308955193E0,2.753331900E0
1.402935714E1,-5.027823523E-2,-9.332897186E0,2.753331900E0
1.403935714E1,-5.027823523E-2,-9.325715065E0,2.767697096E0
1.404935714E1,-5.985504389E-2,-9.294589996E0,2.774879694E0
1.405935740E1,-5.027823523E-2,-9.282619476E0,2.794033289E0
1.406935740E1,-2.394201700E-3,-9.304166794E0,2.837129116E0
1.407935714E1,1.915361360E-2,-9.332897186E0,2.849100113E0
1.408935714E1,2.633621916E-2,-9.361627579E0,2.834734917E0
1.409935714E1,3.112462163E-2,-9.375992775E0,2.839523315E0
1.410935687E1,4.070143029E-2,-9.411906242E0,2.796427488E0
1.411935687E1,2.154781483E-2,-9.445425034E0,2.791639090E0
1.412935687E1,4.788403399E-3,-9.455001831E0,2.786850691E0
1.413935687E1,-1.915361360E-2,-9.450213432E0,2.758120298E0
1.414935687E1,-1.436521020E-2,-9.478943825E0,2.779668093E0
1.415935687E1,-1.436521020E-2,-9.490914345E0,2.777273893E0
1.416935687E1,0.000000000E0,-9.507674217E0,2.803610086E0
1.417935687E1,3.351882473E-2,-9.517251015E0,2.827552319E0
1.418935687E1,2.633621916E-2,-9.531616211E0,2.765302896E0
1.419935717E1,3.112462163E-2,-9.536404610E0,2.750937700E0
1.420935717E1,5.985504389E-2,-9.478943825E0,2.726995707E0
1.421935717E1,8.619125932E-2,-9.423876762E0,2.748543501E0
1.422935717E1,9.816227108E-2,-9.368810654E0,2.741360903E0
1.423935717E1,4.309562966E-2,-9.325715065E0,2.738966703E0
1.424935690E1,-1.675941236E-2,-9.244312286E0,2.736572504E0
1.425935690E1,-3.830722719E-2,-9.225158691E0,2.715024710E0
1.426935690E1,-2.154781483E-2,-9.172486305E0,2.746149302E0
1.427935690E1,-5.746084079E-2,-9.174880028E0,2.736572504E0
1.428935690E1,-9.816227108E-2,-9.172486305E0,2.707842112E0
1.429935690E1,-1.173158810E-1,-9.189245224E0,2.683900118E0
1.430935717E1,-1.244984865E-1,-9.225158691E0,2.691082716E0
1.431935717E1,-1.364694983E-1,-9.253889084E0,2.683900118E0
1.432935717E1,-8.858546615E-2,-9.263465881E0,2.703053713E0
1.433935717E1,-9.816227108E-2,-9.258677483E0,2.726995707E0
1.434935717E1,-7.422025502E-2,-9.251494408E0,2.786850691E0
1.435935690E1,-8.140286058E-2,-9.265859604E0,2.820369720E0
1.436935690E1,-1.436521020E-2,-9.311349869E0,2.901772499E0
1.437935690E1,-9.576806799E-3,-9.342473984E0,2.920926094E0
1.438935690E1,0.000000000E0,-9.421483040E0,2.861071110E0
1.439935690E1,4.788403399E-3,-9.426271439E0,2.834734917E0
1.440935690E1,1.436521020E-2,-9.466972351E0,2.813186884E0
1.441935690E1,6.943184882E-2,-9.488520622E0,2.844311714E0
1.442935690E1,3.830722719E-2,-9.490914345E0,2.765302896E0
1.443935690E1,-3.591302410E-2,-9.486125946E0,2.755726099E0
1.444935717E1,0.000000000E0,-9.522039413E0,2.715024710E0
1.445935717E1,1.915361360E-2,-9.538799286E0,2.688688517E0
1.446935717E1,7.182605099E-3,-9.500492096E0,2.703053713E0
1.447935717E1,7.182605099E-3,-9.481337547E0,2.726995707E0
1.448935717E1,6.464344263E-2,-9.481337547E0,2.707842112E0
1.449935687E1,6.703764945E-2,-9.471760750E0,2.705447912E0
1.450935687E1,8.858546615E-2,-9.450213432E0,2.695871115E0
1.451935687E1,1.005564705E-1,-9.431059837E0,2.705447912E0
1.452935687E1,1.244984865E-1,-9.385569572E0,2.707842112E0
1.453935687E1,1.221042871E-1,-9.361627579E0,2.731784105E0
1.454935687E1,1.436520964E-1,-9.380781174E0,2.734178305E0
1.455935713E1,1.244984865E-1,-9.416694641E0,2.734178305E0
1.456935713E1,1.077390760E-1,-9.512462616E0,2.707842112E0
1.457935713E1,8.858546615E-2,-9.574711800E0,2.700659513E0
1.458935713E1,-1.675941236E-2,-9.634567261E0,2.681505919E0
1.459935713E1,-5.027823523E-2,-9.651326180E0,2.628833532E0
1.460935687E1,-1.268926859E-1,-9.629778862E0,2.626439333E0
1.461935687E1,-1.460463107E-1,-9.620202065E0,2.612074137E0
1.462935687E1,-1.843535304E-1,-9.565135002E0,2.600103140E0
1.463935687E1,-2.035071403E-1,-9.531616211E0,2.592920542E0
1.464935687E1,-1.747767180E-1,-9.459790230E0,2.571372509E0
1.465935687E1,-1.149216816E-1,-9.431059837E0,2.545036316E0
1.466935687E1,-4.548983276E-2,-9.356839180E0,2.552218914E0
1.467935687E1,2.394201700E-3,-9.318531990E0,2.578555346E0
1.468935687E1,1.053448766E-1,-9.299378395E0,2.628833532E0
1.469935717E1,1.651999205E-1,-9.294589996E0,2.657563925E0
1.470935717E1,1.843535304E-1,-9.292196274E0,2.717418909E0
1.471935717E1,2.082955539E-1,-9.282619476E0,2.765302896E0
1.472935717E1,2.537853718E-1,-9.294589996E0,2.817975283E0
1.473935717E1,2.274491638E-1,-9.285013199E0,2.875436306E0
1.474935690E1,2.370259613E-1,-9.332897186E0,2.899378300E0
1.475935690E1,2.202665508E-1,-9.340080261E0,2.906560898E0
1.476935690E1,1.651999205E-1,-9.335291862E0,2.896984100E0
1.477935690E1,1.556231081E-1,-9.395146370E0,2.916137695E0
1.478935690E1,8.619125932E-2,-9.433453560E0,2.916137695E0
1.479935690E1,9.337386489E-2,-9.471760750E0,2.913743496E0
1.480935717E1,2.633621916E-2,-9.545981407E0,2.894589901E0
1.481935717E1,0.000000000E0,-9.555558205E0,2.894589901E0
1.482935717E1,-1.197100803E-2,-9.562741280E0,2.908955097E0
1.483935717E1,-4.788403213E-2,-9.567529678E0,2.913743496E0
1.484935716E1,-4.788403213E-2,-9.519645691E0,2.930502892E0
1.485935716E1,-7.422025502E-2,-9.466972351E0,2.944868088E0
1.486935716E1,-6.943184882E-2,-9.395146370E0,2.923320293E0
1.487935716E1,-8.619125932E-2,-9.342473984E0,2.916137695E0
1.488935717E1,-1.005564705E-1,-9.273042679E0,2.892195702E0
1.489935717E1,-8.140286058E-2,-9.249100685E0,2.908955097E0
1.490935717E1,-6.464344263E-2,-9.222764015E0,2.916137695E0
1.491935747E1,-5.746084079E-2,-9.198822021E0,2.904166698E0
1.492935746E1,-3.351882473E-2,-9.191639900E0,2.873042107E0
1.493935746E1,-2.633621916E-2,-9.191639900E0,2.844311714E0
1.494935776E1,-4.548983276E-2,-9.208398819E0,2.777273893E0
1.495935777E1,-4.309562966E-2,-9.191639900E0,2.779668093E0
1.496935777E1,-5.267243832E-2,-9.196428299E0,2.726995707E0
1.497935777E1,-8.140286058E-2,-9.201216698E0,2.722207308E0
1.498935777E1,-1.029506698E-1,-9.263465881E0,2.712630510E0
1.499935747E1,-1.244984865E-1,-9.277831078E0,2.700659513E0
1.500935746E1,-1.556231081E-1,-9.335291862E0,2.674323320E0
1.501935746E1,-1.939303428E-1,-9.383175850E0,2.679111719E0
1.502935746E1,-1.939303428E-1,-9.469367027E0,2.700659513E0
1.503935746E1,-2.106897533E-1,-9.522039413E0,2.700659513E0
1.504935747E1,-2.466027737E-1,-9.579500198E0,2.676717520E0
1.505935773E1,-2.322375625E-1,-9.565135002E0,2.676717520E0
1.506935773E1,-2.537853718E-1,-9.560346603E0,2.705447912E0
1.507935773E1,-2.178723514E-1,-9.584288597E0,2.695871115E0
1.508935773E1,-2.154781520E-1,-9.593865395E0,2.691082716E0
1.509935773E1,-2.178723514E-1,-9.589076996E0,2.679111719E0
1.510935746E1,-1.675941199E-1,-9.567529678E0,2.676717520E0
1.511935746E1,-1.340752989E-1,-9.565135002E0,2.671929121E0
1.512935746E1,-1.292868853E-1,-9.531616211E0,2.676717520E0
1.513935746E1,-1.077390760E-1,-9.538799286E0,2.679111719E0
1.514935746E1,-1.268926859E-1,-9.476549149E0,2.691082716E0
1.515935720E1,-1.101332754E-1,-9.500492096E0,2.719813108E0
1.516935720E1,-1.077390760E-1,-9.426271439E0,2.762908697E0
1.517935720E1,-1.316810995E-1,-9.416694641E0,2.779668093E0
1.518935720E1,-1.723825186E-1,-9.402329445E0,2.791639090E0
1.519935750E1,-1.604115069E-1,-9.387964249E0,2.786850691E0
1.520935750E1,-1.723825186E-1,-9.359233856E0,2.755726099E0
1.521935720E1,-2.059013397E-1,-9.361627579E0,2.734178305E0
1.522935720E1,-2.250549644E-1,-9.359233856E0,2.662352324E0
1.523935720E1,-1.939303428E-1,-9.325715065E0,2.659958124E0
1.524935690E1,-1.747767180E-1,-9.258677483E0,2.750937700E0
1.525935690E1,-1.699883193E-1,-9.215581894E0,2.796427488E0
1.526935690E1,-9.576806426E-2,-9.239523888E0,2.837129116E0
1.527935690E1,-8.619125932E-2,-9.270648003E0,2.817975283E0
1.528935690E1,-1.340752989E-1,-9.282619476E0,2.834734917E0
1.529935690E1,-1.412578970E-1,-9.289801598E0,2.880224705E0
1.530935716E1,-1.292868853E-1,-9.299378395E0,2.887407303E0
1.531935716E1,-1.268926859E-1,-9.292196274E0,2.899378300E0
1.532935716E1,-1.388636976E-1,-9.347262383E0,2.875436306E0
1.533935716E1,-9.337386489E-2,-9.399934769E0,2.885013103E0
1.534935716E1,-7.182604820E-2,-9.500492096E0,2.863465309E0
1.535935690E1,-1.005564705E-1,-9.560346603E0,2.844311714E0
1.536935690E1,-8.858546615E-2,-9.617807388E0,2.789244890E0
1.537935690E1,-6.224924326E-2,-9.613018990E0,2.770091295E0
1.538935690E1,7.182605099E-3,-9.651326180E0,2.846705914E0
1.539935690E1,-7.182605099E-3,-9.629778862E0,2.683900118E0
1.540935690E1,-1.340752989E-1,-9.591471672E0,2.612074137E0
1.541935690E1,-1.364694983E-1,-9.529222488E0,2.545036316E0
1.542935690E1,-7.182604820E-2,-9.440636635E0,2.523488522E0
1.543935690E1,-3.591302410E-2,-9.402329445E0,2.566584110E0
1.544935716E1,1.675941236E-2,-9.306561470E0,2.614468336E0
1.545935716E1,3.591302410E-2,-9.253889084E0,2.655169725E0
1.546935716E1,5.506663769E-2,-9.206005096E0,2.683900118E0
1.547935716E1,5.985504389E-2,-9.179668427E0,2.671929121E0
1.548935716E1,5.506663769E-2,-9.162909508E0,2.643198729E0
1.549935686E1,6.703764945E-2,-9.184456825E0,2.631227732E0
1.550935686E1,6.224924326E-2,-9.194033623E0,2.573766708E0
1.551935686E1,3.830722719E-2,-9.186851501E0,2.547430515E0
1.552935686E1,4.788403399E-3,-9.208398819E0,2.492363930E0
1.553935686E1,-1.915361360E-2,-9.222764015E0,2.489969730E0
1.554935686E1,-5.746084079E-2,-9.258677483E0,2.497152328E0
1.555935713E1,-6.943184882E-2,-9.316138268E0,2.487575531E0
1.556935713E1,-9.816227108E-2,-9.366415977E0,2.489969730E0
1.557935713E1,-1.005564705E-1,-9.373599052E0,2.475604534E0
1.558935713E1,-8.140286058E-2,-9.371204376E0,2.504334927E0
1.559935713E1,-8.140286058E-2,-9.361627579E0,2.513911724E0
1.560935686E1,-3.591302410E-2,-9.385569572E0,2.525882721E0
1.561935686E1,-3.591302410E-2,-9.431059837E0,2.576161146E0
1.562935686E1,-1.675941236E-2,-9.493309021E0,2.595314741E0
1.563935686E1,2.154781483E-2,-9.519645691E0,2.600103140E0
1.564935686E1,3.351882473E-2,-9.567529678E0,2.633621931E0
1.565935686E1,-7.182605099E-3,-9.581894875E0,2.643198729E0
1.566935686E1,0.000000000E0,-9.617807388E0,2.640804529E0
1.567935686E1,-3.112462163E-2,-9.617807388E0,2.674323320E0
1.568935686E1,-9.337386489E-2,-9.608230591E0,2.638410330E0
1.569935689E1,-8.619125932E-2,-9.613018990E0,2.621650934E0
1.570935689E1,-1.077390760E-1,-9.603442192E0,2.621650934E0
1.571935689E1,-1.197100878E-1,-9.596260071E0,2.638410330E0
1.572935689E1,-9.337386489E-2,-9.567529678E0,2.667140722E0
1.573935689E1,-5.985504389E-2,-9.548376083E0,2.691082716E0
1.574935663E1,-2.394201607E-2,-9.531616211E0,2.741360903E0
1.575935663E1,-3.591302410E-2,-9.524434090E0,2.741360903E0
1.576935663E1,-3.112462163E-2,-9.529222488E0,2.755726099E0
1.577935663E1,-4.788403399E-3,-9.495702744E0,2.765302896E0
1.578935663E1,-1.915361360E-2,-9.486125946E0,2.782062292E0
1.579935663E1,2.633621916E-2,-9.471760750E0,2.791639090E0
1.580935689E1,2.873042040E-2,-9.481337547E0,2.758120298E0
1.581935689E1,2.394201607E-2,-9.507674217E0,2.738966703E0
1.582935689E1,0.000000000E0,-9.498097420E0,2.693476915E0
1.583935689E1,-3.591302410E-2,-9.459790230E0,2.669534922E0
1.584935689E1,-5.506663769E-2,-9.383175850E0,2.741360903E0
1.585935663E1,-4.788403213E-2,-9.349657059E0,2.758120298E0
1.586935663E1,-4.070143029E-2,-9.311349869E0,2.750937700E0
1.587935663E1,-3.351882473E-2,-9.308955193E0,2.738966703E0
1.588935663E1,-4.309562966E-2,-9.292196274E0,2.719813108E0
1.589935663E1,-5.746084079E-2,-9.275436401E0,2.683900118E0
1.590935663E1,-4.548983276E-2,-9.246706009E0,2.717418909E0
1.591935663E1,-6.943184882E-2,-9.222764015E0,2.762908697E0
1.592935663E1,-3.351882473E-2,-9.287407875E0,2.786850691E0
1.593935663E1,-3.112462163E-2,-9.320926666E0,2.806004286E0
1.594935689E1,-3.351882473E-2,-9.399934769E0,2.770091295E0
1.595935689E1,-2.633621916E-2,-9.483732224E0,2.741360903E0
1.596935689E1,2.154781483E-2,-9.572318077E0,2.688688517E0
1.597935689E1,1.532289088E-1,-9.658509254E0,2.851494312E0
1.598935689E1,-2.633621916E-2,-9.653720856E0,2.743755102E0
1.599935713E1,-9.816227108E-2,-9.672874451E0,2.717418909E0
1.600935712E1,-1.556231081E-1,-9.660902977E0,2.590526342E0
1.601935713E1,-1.388636976E-1,-9.677662849E0,2.614468336E0
1.602935712E1,-1.268926859E-1,-9.613018990E0,2.595314741E0
1.603935713E1,-1.221042871E-1,-9.557952881E0,2.628833532E0
1.604935712E1,-1.508347094E-1,-9.466972351E0,2.671929121E0
1.605935719E1,-1.364694983E-1,-9.438241959E0,2.650381327E0
1.606935719E1,-1.077390760E-1,-9.411906242E0,2.578555346E0
1.607935719E1,-1.053448766E-1,-9.404723167E0,2.561795712E0
1.608935719E1,-5.267243832E-2,-9.352050781E0,2.588132143E0
1.609935719E1,-2.633621916E-2,-9.349657059E0,2.609679937E0
1.610935692E1,3.351882473E-2,-9.361627579E0,2.659958124E0
1.611935692E1,4.548983276E-2,-9.366415977E0,2.683900118E0
1.612935692E1,5.746084079E-2,-9.352050781E0,2.674323320E0
1.613935692E1,5.985504389E-2,-9.349657059E0,2.612074137E0
1.614935692E1,1.915361360E-2,-9.304166794E0,2.549824715E0
1.615935692E1,-3.112462163E-2,-9.289801598E0,2.535459518E0
1.616935692E1,-4.309562966E-2,-9.285013199E0,2.492363930E0
1.617935692E1,-7.900865376E-2,-9.258677483E0,2.535459518E0
1.618935692E1,-7.182604820E-2,-9.273042679E0,2.590526342E0
1.619935719E1,-6.703764945E-2,-9.294589996E0,2.616862535E0
1.620935719E1,-8.140286058E-2,-9.325715065E0,2.636016130E0
1.621935719E1,-8.379705995E-2,-9.337685585E0,2.631227732E0
1.622935719E1,-7.661445439E-2,-9.397541046E0,2.640804529E0
1.623935719E1,-8.140286058E-2,-9.431059837E0,2.655169725E0
1.624935692E1,-5.985504389E-2,-9.502885818E0,2.633621931E0
1.625935692E1,1.915361360E-2,-9.553164482E0,2.664746523E0
1.626935692E1,-7.182605099E-3,-9.598653793E0,2.559401512E0
1.627935692E1,-1.675941236E-2,-9.617807388E0,2.535459518E0
1.628935692E1,-1.915361360E-2,-9.560346603E0,2.521094322E0
1.629935666E1,-2.633621916E-2,-9.572318077E0,2.509123325E0
1.630935692E1,-3.830722719E-2,-9.557952881E0,2.501940727E0
1.631935692E1,-5.027823523E-2,-9.541193008E0,2.521094322E0
1.632935692E1,-5.985504389E-2,-9.486125946E0,2.494758129E0
1.633935692E1,-8.858546615E-2,-9.452607155E0,2.470816135E0
1.634935692E1,-5.746084079E-2,-9.404723167E0,2.554613113E0
1.635935686E1,-1.915361360E-2,-9.364022255E0,2.600103140E0
1.636935686E1,3.351882473E-2,-9.352050781E0,2.647987127E0
1.637935686E1,9.097966552E-2,-9.366415977E0,2.686294317E0
1.638935686E1,1.029506698E-1,-9.411906242E0,2.671929121E0
1.639935686E1,1.316810995E-1,-9.435848236E0,2.621650934E0
1.640935686E1,1.221042871E-1,-9.471760750E0,2.626439333E0
1.641935686E1,9.816227108E-2,-9.486125946E0,2.628833532E0
1.642935686E1,1.675941236E-2,-9.459790230E0,2.607285738E0
1.643935686E1,-1.197100803E-2,-9.423876762E0,2.621650934E0
1.644935712E1,3.112462163E-2,-9.356839180E0,2.614468336E0
1.645935712E1,5.746084079E-2,-9.371204376E0,2.604891539E0
1.646935712E1,1.053448766E-1,-9.356839180E0,2.590526342E0
1.647935712E1,1.508347094E-1,-9.395146370E0,2.566584110E0
1.648935712E1,1.460463107E-1,-9.464578629E0,2.542642117E0
1.649935712E1,1.819593310E-1,-9.490914345E0,2.525882721E0
1.650935712E1,1.843535304E-1,-9.498097420E0,2.590526342E0
1.651935712E1,2.178723514E-1,-9.502885818E0,2.652775526E0
1.652935712E1,2.226607651E-1,-9.478943825E0,2.762908697E0
1.653935712E1,2.202665508E-1,-9.478943825E0,2.786850691E0
1.654935712E1,2.346317619E-1,-9.498097420E0,2.755726099E0
1.655935739E1,2.489969730E-1,-9.531616211E0,2.719813108E0
1.656935739E1,2.322375625E-1,-9.553164482E0,2.681505919E0
1.657935705E1,2.035071403E-1,-9.591471672E0,2.647987127E0
1.658935705E1,1.556231081E-1,-9.589076996E0,2.568978310E0
1.659935705E1,1.244984865E-1,-9.598653793E0,2.537853718E0
1.660935679E1,7.422025502E-2,-9.536404610E0,2.475604534E0
1.661935679E1,3.351882473E-2,-9.524434090E0,2.454056740E0
1.662935679E1,-2.394201607E-2,-9.483732224E0,2.396595955E0
1.663935679E1,-1.915361360E-2,-9.445425034E0,2.396595955E0
1.664935679E1,-1.436521020E-2,-9.421483040E0,2.370259762E0
1.665935679E1,-9.576806799E-3,-9.392752647E0,2.384624958E0
1.666935679E1,1.197100803E-2,-9.380781174E0,2.461239338E0
1.667935679E1,-2.873042040E-2,-9.383175850E0,2.463633537E0
1.668935679E1,-3.591302410E-2,-9.361627579E0,2.499546528E0
1.669935709E1,-3.830722719E-2,-9.364022255E0,2.523488522E0
1.670935709E1,-4.070143029E-2,-9.328108788E0,2.525882721E0
1.671935709E1,-4.070143029E-2,-9.294589996E0,2.557007313E0
1.672935709E1,-1.675941236E-2,-9.285013199E0,2.511517525E0
1.673935709E1,-7.182605099E-3,-9.280224800E0,2.506729126E0
1.674935682E1,-2.633621916E-2,-9.301773071E0,2.494758129E0
1.675935682E1,-5.746084079E-2,-9.330503464E0,2.458845139E0
1.676935682E1,-8.379705995E-2,-9.337685585E0,2.449268341E0
1.677935682E1,-1.077390760E-1,-9.347262383E0,2.442085743E0
1.678935682E1,-1.101332754E-1,-9.373599052E0,2.458845139E0
1.679935655E1,-1.388636976E-1,-9.399934769E0,2.454056740E0
1.680935682E1,-1.915361285E-1,-9.447818756E0,2.487575531E0
1.681935682E1,-1.651999205E-1,-9.476549149E0,2.494758129E0
1.682935682E1,-1.268926859E-1,-9.514857292E0,2.542642117E0
1.683935682E1,-1.244984865E-1,-9.536404610E0,2.545036316E0
1.684935682E1,-9.576806426E-2,-9.534010887E0,2.561795712E0
1.685935655E1,-7.182604820E-2,-9.534010887E0,2.585737944E0
1.686935655E1,-3.591302410E-2,-9.522039413E0,2.616862535E0
1.687935688E1,-1.915361360E-2,-9.517251015E0,2.638410330E0
1.688935715E1,-4.788403399E-3,-9.524434090E0,2.676717520E0
1.689935715E1,2.633621916E-2,-9.500492096E0,2.698265314E0
1.690935715E1,7.900865376E-2,-9.476549149E0,2.738966703E0
1.691935715E1,9.816227108E-2,-9.469367027E0,2.758120298E0
1.692935715E1,1.436520964E-1,-9.466972351E0,2.753331900E0
1.693935715E1,1.412578970E-1,-9.524434090E0,2.772485495E0
1.694935742E1,1.532289088E-1,-9.493309021E0,2.755726099E0
1.695935742E1,1.604115069E-1,-9.500492096E0,2.743755102E0
1.696935742E1,1.292868853E-1,-9.478943825E0,2.777273893E0
1.697935742E1,1.125274822E-1,-9.452607155E0,2.817975283E0
1.698935742E1,1.053448766E-1,-9.488520622E0,2.873042107E0
1.699935712E1,8.379705995E-2,-9.502885818E0,2.873042107E0
1.700935712E1,7.182605099E-3,-9.505280495E0,2.815581083E0
1.701935712E1,-1.197100803E-2,-9.486125946E0,2.815581083E0
1.702935712E1,-5.027823523E-2,-9.507674217E0,2.810792685E0
1.703935712E1,-6.943184882E-2,-9.522039413E0,2.782062292E0
1.704935712E1,-1.101332754E-1,-9.526827812E0,2.746149302E0
1.705935738E1,-9.816227108E-2,-9.526827812E0,2.691082716E0
1.706935738E1,-1.173158810E-1,-9.505280495E0,2.662352324E0
1.707935738E1,-1.388636976E-1,-9.493309021E0,2.645592928E0
1.708935738E1,-1.556231081E-1,-9.440636635E0,2.712630510E0
1.709935738E1,-1.340752989E-1,-9.428665161E0,2.724601507E0
1.710935712E1,-1.580173075E-1,-9.447818756E0,2.734178305E0
1.711935712E1,-1.268926859E-1,-9.443030357E0,2.724601507E0
1.712935712E1,-1.101332754E-1,-9.397541046E0,2.700659513E0
1.713935712E1,-9.576806426E-2,-9.414299965E0,2.703053713E0
1.714935712E1,-3.112462163E-2,-9.445425034E0,2.695871115E0
1.715935712E1,-2.394201607E-2,-9.428665161E0,2.676717520E0
1.716935712E1,7.182605099E-3,-9.474155426E0,2.573766708E0
1.717935712E1,-1.197100803E-2,-9.490914345E0,2.525882721E0
1.718935685E1,-2.154781483E-2,-9.459790230E0,2.497152328E0
1.719935715E1,-3.112462163E-2,-9.435848236E0,2.506729126E0
1.720935715E1,-4.548983276E-2,-9.459790230E0,2.518700123E0
1.721935715E1,-6.703764945E-2,-9.457395554E0,2.516305923E0
1.722935715E1,-7.182604820E-2,-9.466972351E0,2.492363930E0
1.723935715E1,-1.029506698E-1,-9.476549149E0,2.466027737E0
1.724935688E1,-1.101332754E-1,-9.450213432E0,2.449268341E0
1.725935688E1,-1.149216816E-1,-9.423876762E0,2.418143749E0
1.726935688E1,-1.005564705E-1,-9.409511566E0,2.408566952E0
1.727935688E1,-1.221042871E-1,-9.423876762E0,2.413355350E0
1.728935688E1,-1.101332754E-1,-9.411906242E0,2.444479942E0
1.729935688E1,-4.788403213E-2,-9.455001831E0,2.449268341E0
1.730935715E1,-5.267243832E-2,-9.471760750E0,2.456450939E0
1.731935715E1,-5.027823523E-2,-9.464578629E0,2.446874142E0
1.732935715E1,-2.154781483E-2,-9.433453560E0,2.406172752E0
1.733935715E1,7.182605099E-3,-9.397541046E0,2.408566952E0
1.734935715E1,-3.351882473E-2,-9.356839180E0,2.437297344E0
1.735935688E1,-1.197100803E-2,-9.366415977E0,2.470816135E0
1.736935688E1,7.182605099E-3,-9.380781174E0,2.511517525E0
1.737935688E1,2.394201607E-2,-9.385569572E0,2.533065319E0
1.738935688E1,7.422025502E-2,-9.431059837E0,2.578555346E0
1.739935688E1,9.816227108E-2,-9.421483040E0,2.576161146E0
1.740935688E1,1.268926859E-1,-9.433453560E0,2.573766708E0
1.741935688E1,1.651999205E-1,-9.395146370E0,2.525882721E0
1.742935688E1,1.723825186E-1,-9.419088364E0,2.480392933E0
1.743935688E1,1.556231081E-1,-9.402329445E0,2.430114746E0
1.744935715E1,1.388636976E-1,-9.335291862E0,2.391807556E0
1.745935715E1,1.268926859E-1,-9.308955193E0,2.403778553E0
1.746935715E1,8.858546615E-2,-9.289801598E0,2.449268341E0
1.747935715E1,5.267243832E-2,-9.280224800E0,2.482787132E0
1.748935715E1,2.633621916E-2,-9.273042679E0,2.506729126E0
1.749935685E1,1.436521020E-2,-9.304166794E0,2.513911724E0
1.750935685E1,5.267243832E-2,-9.301773071E0,2.564189911E0
1.751935685E1,6.464344263E-2,-9.328108788E0,2.566584110E0
1.752935685E1,1.388636976E-1,-9.366415977E0,2.604891539E0
1.753935685E1,1.651999205E-1,-9.364022255E0,2.592920542E0
1.754935685E1,2.130839527E-1,-9.375992775E0,2.580949545E0
1.755935711E1,2.011129409E-1,-9.397541046E0,2.580949545E0
1.756935711E1,2.178723514E-1,-9.452607155E0,2.492363930E0
1.757935711E1,2.513911724E-1,-9.462183952E0,2.470816135E0
1.758935711E1,2.346317619E-1,-9.498097420E0,2.403778553E0
1.759935711E1,1.939303428E-1,-9.493309021E0,2.375048161E0
1.760935684E1,8.858546615E-2,-9.476549149E0,2.403778553E0
1.761935685E1,5.746084079E-2,-9.457395554E0,2.444479942E0
1.762935684E1,4.548983276E-2,-9.462183952E0,2.480392933E0
1.763935685E1,5.267243832E-2,-9.474155426E0,2.506729126E0
1.764935684E1,8.619125932E-2,-9.507674217E0,2.454056740E0
1.765935684E1,8.619125932E-2,-9.534010887E0,2.413355350E0
1.766935684E1,1.149216816E-1,-9.586683273E0,2.355894566E0
1.767935684E1,1.125274822E-1,-9.605836868E0,2.339135170E0
1.768935685E1,1.340752989E-1,-9.615413666E0,2.363077164E0
1.769935714E1,1.747767180E-1,-9.593865395E0,2.363077164E0
1.770935715E1,1.221042871E-1,-9.627384186E0,2.348711967E0
1.771935714E1,1.197100878E-1,-9.617807388E0,2.353500366E0
1.772935714E1,9.576806426E-2,-9.634567261E0,2.391807556E0
1.773935714E1,7.422025502E-2,-9.636960983E0,2.384624958E0
1.774935688E1,4.309562966E-2,-9.641749382E0,2.389413357E0
1.775935688E1,9.576806799E-3,-9.634567261E0,2.377442360E0
1.776935688E1,-2.873042040E-2,-9.646537781E0,2.348711967E0
1.777935688E1,-4.070143029E-2,-9.622595787E0,2.355894566E0
1.778935688E1,-1.029506698E-1,-9.641749382E0,2.372653961E0
1.779935688E1,-1.604115069E-1,-9.682451248E0,2.363077164E0
1.780935714E1,-2.082955539E-1,-9.771036148E0,2.372653961E0
1.781935714E1,-2.011129409E-1,-9.775824547E0,2.365471363E0
1.782935714E1,-1.412578970E-1,-9.747094154E0,2.420537949E0
1.783935714E1,-1.005564705E-1,-9.672874451E0,2.473210335E0
1.784935714E1,-7.182605099E-3,-9.601048470E0,2.542642117E0
1.785935688E1,7.900865376E-2,-9.531616211E0,2.554613113E0
1.786935688E1,1.484405100E-1,-9.450213432E0,2.597708941E0
1.787935688E1,1.771709323E-1,-9.421483040E0,2.609679937E0
1.788935688E1,2.106897533E-1,-9.340080261E0,2.669534922E0
1.789935688E1,2.298433632E-1,-9.320926666E0,2.686294317E0
1.790935688E1,2.250549644E-1,-9.316138268E0,2.726995707E0
1.791935688E1,2.226607651E-1,-9.308955193E0,2.705447912E0
1.792935688E1,2.466027737E-1,-9.368810654E0,2.693476915E0
1.793935688E1,2.418143749E-1,-9.356839180E0,2.647987127E0
1.794935714E1,2.130839527E-1,-9.347262383E0,2.614468336E0
1.795935714E1,1.891419291E-1,-9.316138268E0,2.616862535E0
1.796935714E1,1.412578970E-1,-9.301773071E0,2.614468336E0
1.797935714E1,8.858546615E-2,-9.320926666E0,2.631227732E0
1.798935714E1,2.154781483E-2,-9.328108788E0,2.626439333E0
1.799935684E1,-4.070143029E-2,-9.359233856E0,2.621650934E0
1.800935684E1,-8.619125932E-2,-9.397541046E0,2.626439333E0
1.801935684E1,-1.053448766E-1,-9.378387451E0,2.647987127E0
1.802935684E1,-1.532289088E-1,-9.375992775E0,2.686294317E0
1.803935684E1,-1.867477298E-1,-9.419088364E0,2.700659513E0
1.804935684E1,-2.059013397E-1,-9.445425034E0,2.688688517E0
1.805935711E1,-1.819593310E-1,-9.486125946E0,2.667140722E0
1.806935711E1,-1.651999205E-1,-9.543587685E0,2.659958124E0
1.807935711E1,-1.101332754E-1,-9.541193008E0,2.662352324E0
1.808935711E1,-8.858546615E-2,-9.574711800E0,2.643198729E0
1.809935711E1,-1.005564705E-1,-9.548376083E0,2.624045134E0
1.810935684E1,-1.173158810E-1,-9.522039413E0,2.583343744E0
1.811935684E1,-1.173158810E-1,-9.495702744E0,2.595314741E0
1.812935684E1,-1.292868853E-1,-9.423876762E0,2.588132143E0
1.813935684E1,-1.125274822E-1,-9.390357971E0,2.592920542E0
1.814935684E1,-7.900865376E-2,-9.402329445E0,2.604891539E0
1.815935684E1,-5.746084079E-2,-9.387964249E0,2.621650934E0
1.816935684E1,-1.915361360E-2,-9.407117844E0,2.645592928E0
1.817935684E1,0.000000000E0,-9.431059837E0,2.679111719E0
1.818935684E1,5.267243832E-2,-9.469367027E0,2.686294317E0
1.819935711E1,6.464344263E-2,-9.474155426E0,2.671929121E0
1.820935711E1,5.506663769E-2,-9.490914345E0,2.681505919E0
1.821935711E1,6.224924326E-2,-9.471760750E0,2.683900118E0
1.822935711E1,5.985504389E-2,-9.464578629E0,2.700659513E0
1.823935711E1,7.422025502E-2,-9.438241959E0,2.707842112E0
1.824935684E1,7.182604820E-2,-9.450213432E0,2.686294317E0
1.825935684E1,3.112462163E-2,-9.447818756E0,2.679111719E0
1.826935684E1,2.873042040E-2,-9.536404610E0,2.638410330E0
1.827935684E1,-5.267243832E-2,-9.471760750E0,2.597708941E0
1.828935684E1,-8.140286058E-2,-9.476549149E0,2.523488522E0
1.829935684E1,-8.379705995E-2,-9.483732224E0,2.513911724E0
1.830935711E1,-1.221042871E-1,-9.529222488E0,2.468421936E0
1.831935711E1,-1.029506698E-1,-9.557952881E0,2.444479942E0
1.832935711E1,-5.985504389E-2,-9.550769806E0,2.363077164E0
1.833935711E1,-3.830722719E-2,-9.543587685E0,2.334346771E0
1.834935711E1,-1.675941236E-2,-9.543587685E0,2.324769735E0
1.835935684E1,-2.154781483E-2,-9.502885818E0,2.298433542E0
1.836935684E1,-6.224924326E-2,-9.397541046E0,2.248155355E0
1.837935684E1,-1.005564705E-1,-9.342473984E0,2.248155355E0
1.838935684E1,-3.591302410E-2,-9.289801598E0,2.300827742E0
1.839935684E1,-2.154781483E-2,-9.263465881E0,2.315192938E0
1.840935684E1,-3.351882473E-2,-9.246706009E0,2.382230759E0
1.841935684E1,-2.394201607E-2,-9.225158691E0,2.406172752E0
1.842935684E1,-1.675941236E-2,-9.265859604E0,2.365471363E0
1.843935684E1,0.000000000E0,-9.299378395E0,2.360682964E0
1.844935711E1,2.394201700E-3,-9.352050781E0,2.346317768E0
1.845935711E1,0.000000000E0,-9.395146370E0,2.317587137E0
1.846935711E1,-2.633621916E-2,-9.423876762E0,2.284068346E0
1.847935711E1,-1.915361360E-2,-9.414299965E0,2.243366957E0
1.848935711E1,-3.591302410E-2,-9.383175850E0,2.178723574E0
1.849935684E1,-9.576806799E-3,-9.340080261E0,2.152387381E0
1.850935684E1,-2.633621916E-2,-9.301773071E0,2.202665567E0
1.851935684E1,-3.351882473E-2,-9.275436401E0,2.212242365E0
1.852935684E1,-4.070143029E-2,-9.296984673E0,2.264914751E0
1.853935684E1,-3.591302410E-2,-9.301773071E0,2.291250944E0
1.854935684E1,-2.154781483E-2,-9.373599052E0,2.322375536E0
1.855935710E1,-7.182605099E-3,-9.399934769E0,2.346317768E0
1.856935710E1,1.029506698E-1,-9.435848236E0,2.367865562E0
1.857935710E1,1.292868853E-1,-9.490914345E0,2.384624958E0
1.858935710E1,2.681505978E-1,-9.536404610E0,2.377442360E0
1.859935711E1,2.873041928E-1,-9.584288597E0,2.363077164E0
1.860935684E1,3.615244627E-1,-9.636960983E0,2.303221941E0
1.861935684E1,3.615244627E-1,-9.653720856E0,2.284068346E0
1.862935684E1,3.184288144E-1,-9.658509254E0,2.281674147E0
1.863935684E1,2.920926213E-1,-9.677662849E0,2.269703150E0
1.864935684E1,1.915361285E-1,-9.653720856E0,2.288856745E0
1.865935684E1,1.939303428E-1,-9.644144058E0,2.336740971E0
1.866935684E1,1.508347094E-1,-9.586683273E0,2.403778553E0
1.867935684E1,1.460463107E-1,-9.567529678E0,2.430114746E0
1.868935684E1,1.675941199E-1,-9.572318077E0,2.518700123E0
1.869935714E1,2.011129409E-1,-9.572318077E0,2.583343744E0
1.870935714E1,2.298433632E-1,-9.579500198E0,2.636016130E0
1.871935714E1,2.561795712E-1,-9.584288597E0,2.674323320E0
1.872935714E1,2.466027737E-1,-9.636960983E0,2.691082716E0
1.873935714E1,2.130839527E-1,-9.675268173E0,2.691082716E0
1.874935687E1,1.771709323E-1,-9.730335236E0,2.616862535E0
1.875935687E1,1.556231081E-1,-9.783007622E0,2.573766708E0
1.876935687E1,1.699883193E-1,-9.811738014E0,2.449268341E0
1.877935687E1,1.771709323E-1,-9.804554939E0,2.398990154E0
1.878935687E1,1.292868853E-1,-9.792584419E0,2.322375536E0
1.879935687E1,8.140286058E-2,-9.759065628E0,2.293645144E0
1.880935714E1,5.746084079E-2,-9.720758438E0,2.262520552E0
1.881935714E1,5.027823523E-2,-9.668086052E0,2.276885748E0
1.882935714E1,2.394201607E-2,-9.617807388E0,2.353500366E0
1.883935714E1,6.703764945E-2,-9.553164482E0,2.377442360E0
1.884935714E1,1.292868853E-1,-9.471760750E0,2.451662540E0
1.885935687E1,1.771709323E-1,-9.440636635E0,2.523488522E0
1.886935687E1,2.226607651E-1,-9.447818756E0,2.461239338E0
1.887935687E1,2.896983922E-1,-9.502885818E0,2.430114746E0
1.888935687E1,3.878606856E-1,-9.545981407E0,2.346317768E0
1.889935687E1,3.878606856E-1,-9.584288597E0,2.300827742E0
1.890935687E1,3.734954596E-1,-9.591471672E0,2.212242365E0
1.891935687E1,3.854664862E-1,-9.574711800E0,2.140416384E0
1.892935687E1,3.232172430E-1,-9.481337547E0,2.111685991E0
1.893935687E1,2.753331959E-1,-9.395146370E0,2.126051188E0
1.894935714E1,1.891419291E-1,-9.263465881E0,2.190694571E0
1.895935714E1,1.484405100E-1,-9.210793495E0,2.250549555E0
1.896935714E1,1.077390760E-1,-9.143755913E0,2.346317768E0
1.897935714E1,1.029506698E-1,-9.138967514E0,2.382230759E0
1.898935714E1,1.244984865E-1,-9.134179115E0,2.410961151E0
1.899935684E1,1.364694983E-1,-9.172486305E0,2.415749550E0
1.900935684E1,1.795651317E-1,-9.198822021E0,2.437297344E0
1.901935684E1,1.604115069E-1,-9.227552414E0,2.439691544E0
1.902935684E1,2.011129409E-1,-9.258677483E0,2.463633537E0
1.903935684E1,2.130839527E-1,-9.273042679E0,2.473210335E0
1.904935684E1,1.628057212E-1,-9.325715065E0,2.521094322E0
1.905935710E1,1.460463107E-1,-9.342473984E0,2.533065319E0
1.906935710E1,5.985504389E-2,-9.361627579E0,2.518700123E0
1.907935710E1,4.309562966E-2,-9.375992775E0,2.509123325E0
1.908935710E1,-2.873042040E-2,-9.397541046E0,2.494758129E0
1.909935710E1,-1.101332754E-1,-9.380781174E0,2.466027737E0
1.910935684E1,-1.867477298E-1,-9.433453560E0,2.432508945E0
1.911935684E1,-1.915361285E-1,-9.404723167E0,2.401384354E0
1.912935684E1,-1.436520964E-1,-9.452607155E0,2.420537949E0
1.913935684E1,-9.337386489E-2,-9.469367027E0,2.437297344E0
1.914935684E1,4.788403399E-3,-9.488520622E0,2.461239338E0
1.915935684E1,6.464344263E-2,-9.538799286E0,2.466027737E0
1.916935684E1,1.412578970E-1,-9.569923401E0,2.492363930E0
1.917935684E1,1.915361285E-1,-9.586683273E0,2.504334927E0
1.918935684E1,2.729389966E-1,-9.665691376E0,2.475604534E0
1.919935714E1,3.064578176E-1,-9.670479774E0,2.480392933E0
1.920935714E1,3.016694188E-1,-9.694421768E0,2.430114746E0
1.921935740E1,3.184288144E-1,-9.675268173E0,2.425326347E0
1.922935740E1,2.920926213E-1,-9.646537781E0,2.351106167E0
1.923935740E1,2.609679997E-1,-9.668086052E0,2.310404539E0
1.924935713E1,2.681505978E-1,-9.663297653E0,2.231395960E0
1.925935713E1,2.489969730E-1,-9.660902977E0,2.178723574E0
1.926935713E1,2.011129409E-1,-9.694421768E0,2.109291792E0
1.927935713E1,1.604115069E-1,-9.713575363E0,2.068590164E0
1.928935713E1,1.292868853E-1,-9.763854027E0,2.082955360E0
1.929935713E1,1.268926859E-1,-9.780612946E0,2.121262789E0
1.930935740E1,1.029506698E-1,-9.785401344E0,2.152387381E0
1.931935740E1,1.005564705E-1,-9.816526413E0,2.142810583E0
1.932935740E1,1.101332754E-1,-9.838073730E0,2.121262789E0
1.933935740E1,1.244984865E-1,-9.845256805E0,2.094926596E0
1.934935740E1,1.149216816E-1,-9.823708534E0,2.008735180E0
1.935935713E1,1.029506698E-1,-9.775824547E0,1.951274395E0
1.936935713E1,6.224924326E-2,-9.663297653E0,1.860294700E0
1.937935713E1,7.900865376E-2,-9.577106476E0,1.831564307E0
1.938935713E1,1.029506698E-1,-9.443030357E0,1.881842494E0
1.939935713E1,1.244984865E-1,-9.344868660E0,1.915361404E0
1.940935713E1,1.987187415E-1,-9.210793495E0,1.991975784E0
1.941935713E1,2.657563984E-1,-9.208398819E0,2.049436569E0
1.942935713E1,3.399766386E-1,-9.143755913E0,2.070984364E0
1.943935713E1,3.519476354E-1,-9.129390717E0,2.099714994E0
1.944935740E1,4.213795066E-1,-9.074323654E0,2.219424963E0
1.945935740E1,4.788403511E-1,-9.050381660E0,2.288856745E0
1.946935740E1,5.219359994E-1,-9.040804863E0,2.346317768E0
1.947935740E1,5.386953950E-1,-9.086295128E0,2.379836559E0
1.948935740E1,5.291185975E-1,-9.150938034E0,2.389413357E0
1.949935710E1,5.051765442E-1,-9.220370293E0,2.389413357E0
1.950935710E1,3.998316824E-1,-9.311349869E0,2.365471363E0
1.951935683E1,3.399766386E-1,-9.375992775E0,2.319981337E0
1.952935683E1,2.011129409E-1,-9.385569572E0,2.260126352E0
1.953935683E1,1.197100878E-1,-9.368810654E0,2.240972757E0
1.954935683E1,3.591302410E-2,-9.352050781E0,2.269703150E0
1.955935710E1,0.000000000E0,-9.316138268E0,2.317587137E0
1.956935710E1,-1.436521020E-2,-9.371204376E0,2.367865562E0
1.957935710E1,0.000000000E0,-9.344868660E0,2.394201756E0
1.958935710E1,8.619125932E-2,-9.452607155E0,2.432508945E0
1.959935710E1,1.460463107E-1,-9.488520622E0,2.449268341E0
1.960935683E1,2.130839527E-1,-9.529222488E0,2.537853718E0
1.961935683E1,2.537853718E-1,-9.526827812E0,2.571372509E0
1.962935683E1,3.423708379E-1,-9.455001831E0,2.636016130E0
1.963935683E1,3.088520169E-1,-9.443030357E0,2.664746523E0
1.964935683E1,2.537853718E-1,-9.387964249E0,2.703053713E0
1.965935683E1,1.580173075E-1,-9.375992775E0,2.674323320E0
1.966935683E1,7.182605099E-3,-9.356839180E0,2.652775526E0
1.967935683E1,-9.816227108E-2,-9.373599052E0,2.597708941E0
1.968935683E1,-2.082955539E-1,-9.414299965E0,2.549824715E0
1.969935713E1,-2.418143749E-1,-9.466972351E0,2.499546528E0
1.970935713E1,-2.705447972E-1,-9.531616211E0,2.434903145E0
1.971935713E1,-2.609679997E-1,-9.569923401E0,2.410961151E0
1.972935713E1,-2.609679997E-1,-9.629778862E0,2.355894566E0
1.973935713E1,-2.537853718E-1,-9.658509254E0,2.324769735E0
1.974935686E1,-2.920926213E-1,-9.701604843E0,2.310404539E0
1.975935686E1,-3.663128614E-1,-9.682451248E0,2.329558372E0
1.976935686E1,-5.219359994E-1,-9.586683273E0,2.446874142E0
1.977935686E1,-5.339069963E-1,-9.581894875E0,2.506729126E0
1.978935686E1,-5.698199868E-1,-9.620202065E0,2.612074137E0
1.979935686E1,-5.602431893E-1,-9.615413666E0,2.643198729E0
1.980935713E1,-5.219359994E-1,-9.677662849E0,2.667140722E0
1.981935713E1,-4.908113480E-1,-9.768642426E0,2.710236311E0
1.982935713E1,-3.447650373E-1,-9.869198799E0,2.667140722E0
1.983935713E1,-3.088520169E-1,-9.914688110E0,2.619256735E0
1.984935713E1,-3.974374831E-1,-9.981725693E0,2.600103140E0
1.985935686E1,-4.836287498E-1,-9.984120369E0,2.578555346E0
1.986935686E1,-5.195417404E-1,-9.833285332E0,2.564189911E0
1.987935686E1,-5.171475410E-1,-9.751882553E0,2.585737944E0
1.988935686E1,-4.668693244E-1,-9.593865395E0,2.659958124E0
1.989935686E1,-4.668693244E-1,-9.526827812E0,2.695871115E0
1.990935686E1,-4.141969085E-1,-9.380781174E0,2.715024710E0
1.991935686E1,-4.046200812E-1,-9.294589996E0,2.691082716E0
1.992935686E1,-4.213795066E-1,-9.165303230E0,2.765302896E0
1.993935686E1,-4.285621047E-1,-9.103054047E0,2.791639090E0
1.994935713E1,-4.764461517E-1,-9.016862869E0,2.865859509E0
1.995935713E1,-5.243301988E-1,-8.995314598E0,2.930502892E0
1.996935713E1,-5.770025849E-1,-8.933065414E0,2.949656487E0
1.997935713E1,-6.320692301E-1,-8.928277016E0,2.906560898E0
1.998935713E1,-7.038952708E-1,-8.921094894E0,2.791639090E0
1.999935683E1,-7.661445141E-1,-8.897152901E0,2.762908697E0
2.000935683E1,-8.331822157E-1,-8.921094894E0,2.686294317E0
2.001935683E1,-8.331822157E-1,-8.916306496E0,2.712630510E0
2.002935683E1,-8.259995580E-1,-9.021651268E0,2.750937700E0
2.003935683E1,-7.876923680E-1,-9.105448723E0,2.738966703E0
2.004935683E1,-6.871358752E-1,-9.239523888E0,2.729389906E0
2.005935710E1,-6.655880809E-1,-9.340080261E0,2.683900118E0
2.006935710E1,-7.182605267E-1,-9.433453560E0,2.647987127E0
2.007935710E1,-7.206547260E-1,-9.464578629E0,2.628833532E0
2.008935710E1,-7.445967197E-1,-9.514857292E0,2.671929121E0
2.009935710E1,-7.613561153E-1,-9.545981407E0,2.710236311E0
2.010935683E1,-6.823474765E-1,-9.586683273E0,2.746149302E0
2.011935683E1,-6.153098345E-1,-9.615413666E0,2.736572504E0
2.012935683E1,-5.889736414E-1,-9.577106476E0,2.681505919E0
2.013935683E1,-5.746083856E-1,-9.529222488E0,2.698265314E0
2.014935683E1,-4.740519226E-1,-9.466972351E0,2.755726099E0
2.015935683E1,-4.285621047E-1,-9.445425034E0,2.789244890E0
2.016935683E1,-3.639186621E-1,-9.392752647E0,2.849100113E0
2.017935683E1,-3.399766386E-1,-9.404723167E0,2.892195702E0
2.018935683E1,-2.992752194E-1,-9.452607155E0,2.841917515E0
2.019935713E1,-2.873041928E-1,-9.471760750E0,2.861071110E0
2.020935713E1,-3.256114423E-1,-9.459790230E0,2.825158119E0
2.021935713E1,-3.687070608E-1,-9.435848236E0,2.808398485E0
2.022935713E1,-4.740519226E-1,-9.443030357E0,2.734178305E0
2.023935713E1,-5.123591423E-1,-9.443030357E0,2.652775526E0
2.024935686E1,-4.884171486E-1,-9.462183952E0,2.439691544E0
2.025935686E1,-4.237737060E-1,-9.500492096E0,2.312798738E0
2.026935686E1,-3.543418646E-1,-9.478943825E0,2.229001760E0
2.027935686E1,-3.184288144E-1,-9.431059837E0,2.243366957E0
2.028935686E1,-2.298433632E-1,-9.292196274E0,2.389413357E0
2.029935686E1,-1.867477298E-1,-9.225158691E0,2.485181332E0
2.030935703E1,-1.077390760E-1,-9.129390717E0,2.638410330E0
2.031935709E1,-1.340752989E-1,-9.117419243E0,2.738966703E0
2.032935709E1,-1.460463107E-1,-9.155726433E0,2.928108692E0
2.033935709E1,-2.106897533E-1,-9.220370293E0,2.990357876E0
2.034935709E1,-3.495534360E-1,-9.340080261E0,3.007117271E0
2.035935709E1,-4.405331016E-1,-9.378387451E0,2.959233284E0
2.036935709E1,-5.339069963E-1,-9.385569572E0,2.841917515E0
2.037935709E1,-5.554547906E-1,-9.378387451E0,2.755726099E0
2.038935736E1,-5.793967843E-1,-9.289801598E0,2.624045134E0
2.039935736E1,-5.530605912E-1,-9.215581894E0,2.592920542E0
2.040935736E1,-6.057330370E-1,-9.143755913E0,2.612074137E0
2.041935762E1,-6.153098345E-1,-9.122207642E0,2.655169725E0
2.042935762E1,-6.631938815E-1,-9.148544312E0,2.679111719E0
2.043935762E1,-6.344634295E-1,-9.155726433E0,2.695871115E0
2.044935792E1,-5.865794420E-1,-9.134179115E0,2.676717520E0
2.045935793E1,-5.410895944E-1,-9.141361237E0,2.667140722E0
2.046935792E1,-4.333505034E-1,-9.170091629E0,2.628833532E0
2.047935793E1,-3.974374831E-1,-9.167697906E0,2.576161146E0
2.048935792E1,-2.944868207E-1,-9.184456825E0,2.525882721E0
2.049935763E1,-2.418143749E-1,-9.165303230E0,2.458845139E0
2.050935762E1,-1.867477298E-1,-9.153332710E0,2.422932148E0
2.051935762E1,-1.939303428E-1,-9.148544312E0,2.425326347E0
2.052935763E1,-2.585737705E-1,-9.160514832E0,2.463633537E0
2.053935762E1,-3.040636182E-1,-9.160514832E0,2.547430515E0
2.054935763E1,-3.734954596E-1,-9.189245224E0,2.676717520E0
2.055935789E1,-3.926490843E-1,-9.198822021E0,2.753331900E0
2.056935789E1,-4.668693244E-1,-9.251494408E0,2.837129116E0
2.057935789E1,-4.836287498E-1,-9.296984673E0,2.908955097E0
2.058935789E1,-5.219359994E-1,-9.399934769E0,2.887407303E0
2.059935789E1,-5.339069963E-1,-9.462183952E0,2.918531895E0
2.060935772E1,-6.248866320E-1,-9.586683273E0,2.861071110E0
2.061935766E1,-6.536170840E-1,-9.660902977E0,2.851494312E0
2.062935766E1,-6.967126727E-1,-9.744700432E0,2.791639090E0
2.063935766E1,-6.967126727E-1,-9.778219223E0,2.801215887E0
2.064935766E1,-6.847416759E-1,-9.814131737E0,2.844311714E0
2.065935739E1,-6.560112834E-1,-9.838073730E0,2.851494312E0
2.066935739E1,-5.722141862E-1,-9.888352394E0,2.906560898E0
2.067935739E1,-5.123591423E-1,-9.888352394E0,2.928108692E0
2.068935712E1,-4.548983276E-1,-9.847650528E0,2.956839085E0
2.069935742E1,-3.830722570E-1,-9.797372818E0,3.019088268E0
2.070935742E1,-3.423708379E-1,-9.692028046E0,3.021482468E0
2.071935716E1,-3.160346150E-1,-9.617807388E0,3.009511471E0
2.072935716E1,-2.537853718E-1,-9.548376083E0,3.007117271E0
2.073935716E1,-2.346317619E-1,-9.517251015E0,2.975992680E0
2.074935686E1,-2.537853718E-1,-9.423876762E0,2.928108692E0
2.075935686E1,-2.681505978E-1,-9.414299965E0,2.887407303E0
2.076935686E1,-2.729389966E-1,-9.352050781E0,2.810792685E0
2.077935712E1,-2.944868207E-1,-9.313743591E0,2.791639090E0
2.078935712E1,-3.423708379E-1,-9.251494408E0,2.774879694E0
2.079935712E1,-3.423708379E-1,-9.256282806E0,2.770091295E0
2.080935742E1,-3.399766386E-1,-9.237129211E0,2.779668093E0
2.081935742E1,-3.399766386E-1,-9.237129211E0,2.767697096E0
2.082935742E1,-3.256114423E-1,-9.189245224E0,2.782062292E0
