"Time (s)","Gyroscope x (rad/s)","Gyroscope y (rad/s)","Gyroscope z (rad/s)"
1.684466200E-2,7.890087962E-1,2.364048511E-1,-2.092213482E-1
2.685766200E-2,3.400228620E-1,1.429424733E-1,1.230893433E-1
3.685766200E-2,2.080759704E-1,1.747074574E-1,1.878410578E-1
4.685766200E-2,1.097266674E-1,1.386664063E-1,2.092213482E-1
5.686032800E-2,8.712465316E-2,8.857546002E-2,2.214386463E-1
6.686032800E-2,1.133918613E-1,5.192354694E-2,2.208277881E-1
7.686032800E-2,1.781435758E-1,-2.138028294E-2,1.853975952E-1
8.686032800E-2,2.367866337E-1,-1.527163088E-1,1.652390510E-1
9.686032800E-2,2.587777972E-1,-6.719517522E-3,9.254608303E-2
1.068603280E-1,1.989129931E-1,3.359758854E-2,9.193521738E-2
1.168603280E-1,1.524872333E-1,2.199114859E-2,1.469130963E-1
1.268603280E-1,1.366047412E-1,-2.993239649E-2,2.147191316E-1
1.368603280E-1,1.579850167E-1,-6.841690838E-2,3.008511364E-1
1.468603280E-1,2.001347244E-1,-9.040805697E-2,3.643811047E-1
1.568603280E-1,2.538908720E-1,-1.123992056E-1,4.444044530E-1
1.668603280E-1,2.819906771E-1,-6.780604273E-2,4.676173329E-1
1.768603280E-1,1.347721517E-1,8.002334833E-2,2.107485011E-2
1.868603280E-1,-1.608866304E-1,1.527163107E-2,-1.353066564E-1
1.968608570E-1,-4.467715621E-1,1.948660165E-1,-2.226603776E-1
2.068608570E-1,-5.677229166E-1,2.864958048E-1,-3.747658134E-1
2.168608570E-1,-5.164102316E-1,4.386012554E-1,-5.598580241E-1
2.268608570E-1,-6.391941309E-1,2.467895597E-1,-6.392704844E-1
2.368608570E-1,-8.132907152E-1,1.209513173E-1,-5.726861954E-1
2.468608570E-1,-8.328384161E-1,1.368338168E-1,-5.170974135E-1
2.568608570E-1,-7.021132708E-1,-2.138028294E-2,-4.889976382E-1
2.668608570E-1,-3.624721766E-1,-1.295034289E-1,-5.018258095E-1
2.768608570E-1,-3.443752974E-2,-3.249803185E-1,-5.018258095E-1
2.868608570E-1,2.001347244E-1,-5.528330207E-1,-4.334088862E-1
2.968608570E-1,4.621959031E-1,-6.756169796E-1,-3.393356502E-1
3.068611420E-1,7.047094107E-1,-6.206390858E-1,-2.251038402E-1
3.168611420E-1,9.716575146E-1,-4.263839424E-1,-9.926560521E-2
3.268611420E-1,1.153084517E0,-3.292563558E-1,2.138028387E-3
3.368611420E-1,1.247157812E0,-2.938261926E-1,1.860084683E-1
3.468611420E-1,1.250212073E0,-1.783726513E-1,3.210096955E-1
3.568608750E-1,1.185460329E0,-1.508837193E-1,4.743368626E-1
3.668608750E-1,1.039463520E0,6.352998316E-2,5.482515693E-1
3.768608750E-1,7.847327590E-1,2.131919712E-1,5.794056654E-1
3.868608750E-1,4.585307240E-1,2.382374406E-1,5.751296282E-1
3.968608750E-1,1.042288840E-1,2.357939780E-1,6.123924255E-1
4.068608750E-1,-2.164753675E-1,1.502728462E-1,5.891795158E-1
4.168608750E-1,-5.023602843E-1,7.330383174E-3,5.757405162E-1
4.268608750E-1,-7.179957628E-1,-1.191187203E-1,5.207626224E-1
4.368608750E-1,-7.570911050E-1,-1.960877478E-1,4.676173329E-1
4.468611410E-1,-6.685156822E-1,-1.918116808E-1,4.175263941E-1
4.568611410E-1,-5.231297016E-1,-3.133738637E-1,3.405573666E-1
4.668611410E-1,-2.940552533E-1,-4.086688459E-1,2.959642112E-1
4.768611410E-1,-1.366810966E-2,-2.755002379E-1,9.315694869E-2
4.868611410E-1,2.997057736E-1,-1.802052408E-1,-1.383609772E-1
4.968608410E-1,7.181484699E-1,-1.881465018E-1,-2.293798923E-1
5.068608410E-1,9.099601507E-1,-3.378084898E-1,-2.495384514E-1
5.168608410E-1,1.125595570E0,-3.243694305E-1,-1.084285825E-1
5.268608410E-1,1.041296124E0,1.832595794E-3,-7.360926270E-2
5.368608410E-1,7.951174974E-1,2.809980139E-2,1.133155003E-1
5.468608410E-1,5.300019383E-1,-6.719517522E-3,3.014619946E-1
5.568611070E-1,3.033709526E-1,1.850921661E-1,4.657847583E-1
5.668611070E-1,9.934195876E-2,3.830125034E-1,6.411030889E-1
5.768611070E-1,-9.857837856E-2,4.398229718E-1,6.856962442E-1
5.868611070E-1,-2.421317101E-1,3.811798990E-1,5.897904038E-1
5.968611070E-1,-2.763401568E-1,2.266310006E-1,4.627304375E-1
6.068608400E-1,-3.087160289E-1,9.773843735E-2,1.615738571E-1
6.168608400E-1,-2.354121953E-1,-9.896016866E-2,2.657263726E-2
6.268608400E-1,-1.427897532E-2,-2.333505303E-1,1.224784851E-1
6.368608400E-1,2.294562608E-1,-2.003637999E-1,1.059851199E-1
6.468608400E-1,3.180317283E-1,-1.295034289E-1,8.277224004E-2
6.568608400E-1,2.404518276E-1,5.497787148E-3,4.978551716E-2
6.668608400E-1,9.750936180E-2,1.747074574E-1,-2.962696366E-2
6.768608400E-1,-3.199406713E-2,2.944370508E-1,-1.133155003E-1
6.868608400E-1,-1.419498175E-1,3.225368559E-1,-2.037235647E-1
6.968611400E-1,-2.653445899E-1,3.237585723E-1,-2.055561543E-1
7.068611400E-1,-3.783546686E-1,3.011565804E-1,-2.043344229E-1
7.168611400E-1,-4.076761901E-1,2.730567753E-1,-1.890627891E-1
7.268611400E-1,-3.502548635E-1,1.747074574E-1,-1.353066564E-1
7.368611400E-1,-2.567924857E-1,4.153883830E-2,-8.399397135E-2
7.468608730E-1,-1.676061451E-1,-1.704314053E-1,-2.840523422E-2
7.568608730E-1,-7.841982692E-2,-3.365867436E-1,1.527163084E-3
7.668608730E-1,9.926559869E-4,-4.563163519E-1,2.412917651E-2
7.768608730E-1,6.940956414E-2,-4.630358517E-1,4.489859566E-2
7.868608730E-1,7.857254148E-2,-2.883284092E-1,6.078109145E-2
7.968604390E-1,9.017898142E-2,-1.429424733E-1,3.329215571E-2
8.068607050E-1,1.555415690E-1,-1.600466967E-1,2.779436857E-2
8.168607050E-1,1.378264725E-1,-1.673770845E-1,3.268129006E-2
8.268607050E-1,1.005636901E-1,-1.747074574E-1,2.840523422E-2
8.368607050E-1,7.551821321E-2,-1.802052408E-1,2.596177347E-2
8.468607050E-1,5.352706835E-2,-1.698205322E-1,1.618792862E-2
8.568604380E-1,1.626428775E-2,-1.386664063E-1,1.924225502E-2
8.668604380E-1,-8.781188168E-3,-1.227839142E-1,1.435533352E-2
8.768604380E-1,1.565342210E-2,-1.649336219E-1,2.107485011E-2
8.868604380E-1,3.397937864E-2,-1.918116808E-1,2.474004216E-2
8.968604380E-1,4.192062840E-2,-2.083050460E-1,2.840523422E-2
9.068604380E-1,5.169447139E-2,-2.193006277E-1,2.962696366E-2
9.168604380E-1,5.902485549E-2,-2.162462920E-1,2.840523422E-2
9.268604380E-1,6.757696718E-2,-2.089159191E-1,2.779436857E-2
9.368604380E-1,7.490734756E-2,-1.966986060E-1,2.596177347E-2
9.468607040E-1,7.490734756E-2,-1.728748679E-1,2.229658142E-2
9.568607040E-1,7.551821321E-2,-1.661553532E-1,1.802052557E-2
9.668607040E-1,7.612907887E-2,-1.643227488E-1,1.740965992E-2
9.768607040E-1,6.757696718E-2,-1.649336219E-1,1.863138936E-2
9.868607040E-1,5.719225854E-2,-1.600466967E-1,1.618792862E-2
9.968604040E-1,5.352706835E-2,-1.631010175E-1,1.313360315E-2
1.006860404E0,4.986187443E-2,-1.624901593E-1,1.313360315E-2
1.016860404E0,4.680754989E-2,-1.569923609E-1,7.024950348E-3
1.026860404E0,4.253149405E-2,-1.478293836E-1,2.748893574E-3
1.036860404E0,3.886630014E-2,-1.356120855E-1,-9.162978968E-4
1.046860404E0,3.459024429E-2,-1.276708394E-1,-3.359758761E-3
1.056860670E0,3.214678168E-2,-1.111774743E-1,-1.069014147E-2
1.066860670E0,3.275764734E-2,-9.346238524E-2,-1.863138936E-2
1.076860670E0,3.275764734E-2,-7.696902007E-2,-2.901609987E-2
1.086860670E0,2.848159149E-2,-4.825835302E-2,-3.756821156E-2
1.096861103E0,1.809688285E-2,-8.552113548E-3,-5.039638281E-2
1.106860836E0,1.137736533E-2,2.809980139E-2,-5.894849449E-2
1.116860469E0,9.544769302E-3,5.803219974E-2,-7.116580009E-2
1.126860469E0,1.992947794E-2,7.330382615E-2,-8.216137439E-2
1.136860469E0,2.542726509E-2,8.002334833E-2,-8.704829961E-2
1.146860469E0,3.153591976E-2,8.368854225E-2,-8.827003092E-2
1.156860469E0,3.947716579E-2,9.040805697E-2,-8.765916526E-2
1.166860469E0,4.864014685E-2,1.026253626E-1,-8.949175477E-2
1.176860469E0,5.597052723E-2,1.233947799E-1,-9.376781434E-2
1.186860469E0,5.719225854E-2,1.466076523E-1,-1.004873365E-1
1.196860769E0,5.841398984E-2,1.685988009E-1,-1.029307917E-1
1.206860769E0,6.207918003E-2,1.826487035E-1,-1.059851199E-1
1.216860769E0,6.574437022E-2,1.850921661E-1,-1.047633886E-1
1.226860769E0,6.085744873E-2,1.869247705E-1,-9.926560521E-2
1.236860769E0,4.986187443E-2,1.869247705E-1,-9.254608303E-2
1.246860502E0,4.619668424E-2,1.893682331E-1,-8.888089657E-2
1.256860502E0,4.619668424E-2,1.954768747E-1,-8.216137439E-2
1.266860502E0,4.253149405E-2,2.070833147E-1,-7.605272532E-2
1.276860502E0,4.802928120E-2,2.247984111E-1,-7.422012836E-2
1.286860502E0,5.963572115E-2,2.376265824E-1,-7.360926270E-2
1.296860502E0,7.796167582E-2,2.528982162E-1,-7.483099401E-2
1.306860768E0,8.284860104E-2,2.626720667E-1,-7.910704613E-2
1.316860768E0,8.284860104E-2,2.626720667E-1,-7.788532227E-2
1.326860268E0,7.490734756E-2,2.626720667E-1,-7.666359097E-2
1.336860268E0,5.658139288E-2,2.608394623E-1,-7.422012836E-2
1.346860534E0,4.069889709E-2,2.626720667E-1,-6.933320314E-2
1.356860267E0,2.054034360E-2,2.571742535E-1,-6.444628537E-2
1.366860267E0,-3.283400787E-3,2.516764700E-1,-5.772676691E-2
1.376860267E0,-2.344195358E-2,2.516764700E-1,-5.467243865E-2
1.386860267E0,-4.543310404E-2,2.553416789E-1,-5.222897977E-2
1.396860267E0,-6.253732741E-2,2.681698501E-1,-5.100724846E-2
1.406860267E0,-7.841982692E-2,2.748893499E-1,-5.039638281E-2
1.416860633E0,-8.025242388E-2,2.663372457E-1,-4.978551716E-2
1.426860633E0,-8.086328954E-2,2.590068579E-1,-4.978551716E-2
1.436860633E0,-7.903069258E-2,2.492330223E-1,-5.345070735E-2
1.446860933E0,-7.903069258E-2,2.394591719E-1,-5.772676691E-2
1.456860933E0,-8.147415519E-2,2.327396572E-1,-6.933320314E-2
1.466860933E0,-8.147415519E-2,2.193006277E-1,-7.483099401E-2
1.476860933E0,-7.597636431E-2,1.985312104E-1,-8.399397135E-2
1.486860933E0,-7.231117040E-2,1.838704348E-1,-9.132435173E-2
1.496860633E0,-7.475463301E-2,1.869247705E-1,-9.926560521E-2
1.506860633E0,-7.353290170E-2,2.009746730E-1,-1.127046347E-1
1.516860633E0,-6.620252132E-2,2.235766798E-1,-1.200350225E-1
1.526860633E0,-5.826127157E-2,2.510656118E-1,-1.243110746E-1
1.536860633E0,-6.375905871E-2,2.651155293E-1,-1.237002090E-1
1.546860633E0,-6.986771524E-2,2.602286041E-1,-1.224784851E-1
1.556860899E0,-6.314819306E-2,2.443460971E-1,-1.194241568E-1
1.566860899E0,-4.665483162E-2,2.388483137E-1,-1.200350225E-1
1.576860899E0,-3.932445124E-2,2.406809032E-1,-1.279762685E-1
1.586860899E0,-4.054617882E-2,2.186897546E-1,-1.395827085E-1
1.596860899E0,-4.787656292E-2,1.936442852E-1,-1.475239545E-1
1.606860632E0,-5.093089119E-2,1.863138974E-1,-1.572978050E-1
1.616860632E0,-4.665483162E-2,1.936442852E-1,-1.676825136E-1
1.626861132E0,-3.871358559E-2,2.150245607E-1,-1.811215430E-1
1.636861132E0,-1.488984004E-2,2.186897546E-1,-1.908953935E-1
1.646860865E0,4.864014685E-2,1.881465018E-1,-1.860084683E-1
1.656860865E0,9.445504099E-2,1.557706445E-1,-1.805106848E-1
1.666860865E0,1.427133977E-1,1.203404516E-1,-1.725694388E-1
1.676860865E0,1.842522323E-1,8.368854225E-2,-1.566869318E-1
1.686860865E0,2.147954851E-1,4.276056588E-2,-1.365283877E-1
1.696861165E0,2.282345295E-1,5.497787148E-3,-1.114829108E-1
1.706861165E0,2.245693356E-1,-1.649336144E-2,-7.971791178E-2
1.716861165E0,2.056325078E-1,-3.054326214E-2,-4.612032697E-2
1.726861165E0,1.787544489E-1,-4.520402849E-2,-1.007927675E-2
1.736861165E0,1.457677186E-1,-5.986479297E-2,2.596177347E-2
1.746860865E0,1.140027270E-1,-7.635815442E-2,6.444628537E-2
1.756860865E0,8.651378751E-2,-1.038470939E-1,1.029307917E-1
1.766860865E0,6.207918003E-2,-1.258382350E-1,1.444696337E-1
1.776861398E0,4.314235970E-2,-1.459967941E-1,1.731802970E-1
1.786861398E0,3.886630014E-2,-1.710422635E-1,1.792889535E-1
1.796861398E0,5.108360574E-2,-1.905899495E-1,1.695151031E-1
1.806861664E0,7.124216110E-2,-1.973094791E-1,1.414152980E-1
1.816861664E0,9.628763795E-2,-1.942551434E-1,1.035416573E-1
1.826861664E0,1.219439730E-1,-1.795943826E-1,6.811147183E-2
1.836861664E0,1.408807933E-1,-1.643227488E-1,3.695734590E-2
1.846861664E0,1.488220394E-1,-1.374446750E-1,1.435533352E-2
1.856861397E0,1.402699351E-1,-9.773843735E-2,-9.162978968E-4
1.866861397E0,1.225548387E-1,-5.375614017E-2,-9.468411095E-3
1.876861397E0,9.201157838E-2,-1.588249579E-2,-1.313360315E-2
1.886861663E0,5.535966158E-2,2.443460980E-3,-1.313360315E-2
1.896861663E0,1.504255645E-2,-1.160643995E-2,-1.069014147E-2
1.906861663E0,-1.427897532E-2,-4.948008433E-2,-6.414085161E-3
1.916861663E0,-3.504839167E-2,-8.674286306E-2,5.192354787E-3
1.926861663E0,-4.298964143E-2,-1.105666086E-1,1.557706390E-2
1.936861663E0,-3.688098863E-2,-1.160643995E-1,2.779436857E-2
1.946861929E0,-1.733330078E-2,-9.712757170E-2,3.451388702E-2
1.956861929E0,8.323038928E-3,-6.719517708E-2,3.940080851E-2
1.966861929E0,2.725986205E-2,-3.359758854E-2,4.062253982E-2
1.976861929E0,3.947716579E-2,6.719517522E-3,4.001167417E-2
1.986861929E0,4.680754989E-2,5.070181563E-2,3.634648025E-2
1.996861629E0,5.963572115E-2,9.651670605E-2,3.329215571E-2
2.006861629E0,6.207918003E-2,1.576032341E-1,3.329215571E-2
2.016861629E0,6.574437022E-2,1.667662114E-1,4.123340547E-2
2.026861629E0,7.002042979E-2,1.472185254E-1,4.917465150E-2
2.036861629E0,6.940956414E-2,1.160643995E-1,5.955936015E-2
2.046861629E0,6.391177326E-2,8.674286306E-2,7.055493444E-2
2.056861895E0,4.680754989E-2,6.291911751E-2,8.032877743E-2
2.066861895E0,2.603813075E-2,4.398229718E-2,8.765916526E-2
2.076861628E0,1.382082608E-2,3.604105115E-2,9.254608303E-2
2.086861628E0,6.490443368E-3,3.420845419E-2,9.254608303E-2
2.096861628E0,5.879578181E-3,3.787364438E-2,8.949175477E-2
2.106861628E0,1.382082608E-2,3.970624134E-2,8.460483700E-2
2.116861628E0,2.787072770E-2,3.970624134E-2,7.910704613E-2
2.126861628E0,3.764457256E-2,3.604105115E-2,7.360926270E-2
2.136861628E0,4.069889709E-2,2.932153270E-2,6.811147183E-2
2.146861628E0,3.581197560E-2,2.871066704E-2,6.688974798E-2
2.156861628E0,3.397937864E-2,2.993239649E-2,6.383541971E-2
2.166861628E0,3.459024429E-2,2.504547499E-2,6.383541971E-2
2.176861628E0,3.520110995E-2,1.527163107E-2,5.955936015E-2
2.186861361E0,4.314235970E-2,6.719517522E-3,5.711590126E-2
2.196861627E0,5.108360574E-2,1.527163107E-2,5.833763257E-2
2.206861627E0,5.291620269E-2,3.237585723E-2,5.589416996E-2
2.216861627E0,4.986187443E-2,4.642575979E-2,5.345070735E-2
2.226861627E0,4.375322163E-2,5.192354694E-2,5.100724846E-2
2.236861627E0,2.420553565E-2,5.864306539E-2,4.367686436E-2
2.246861360E0,7.101308554E-3,6.108652428E-2,3.512475267E-2
2.256861360E0,-8.781188168E-3,6.841690838E-2,2.962696366E-2
2.266861360E0,-2.466368489E-2,7.757988572E-2,2.779436857E-2
2.276861626E0,-3.871358559E-2,8.124507964E-2,2.962696366E-2
2.286861626E0,-3.993531689E-2,8.368854225E-2,3.268129006E-2
2.296861626E0,-2.405281924E-2,8.368854225E-2,3.207042441E-2
2.306861892E0,5.268712528E-3,8.796459436E-2,2.901609987E-2
2.316861892E0,4.375322163E-2,9.101892263E-2,2.412917651E-2
2.326861892E0,7.612907887E-2,9.101892263E-2,2.351831272E-2
2.336861892E0,9.934195876E-2,7.941248268E-2,2.412917651E-2
2.346861892E0,1.085049361E-1,4.703662544E-2,2.657263726E-2
2.356861625E0,1.048397496E-1,-3.604105115E-2,3.023782931E-2
2.366861625E0,1.005636901E-1,-1.050688252E-1,2.779436857E-2
2.376861358E0,9.506590664E-2,-1.808161139E-1,2.535090782E-2
2.386861358E0,8.590292186E-2,-2.449569702E-1,2.718350291E-2
2.396861358E0,7.429648191E-2,-2.840523422E-1,2.779436857E-2
2.406861091E0,6.391177326E-2,-3.011565804E-1,3.145955876E-2
2.416861091E0,5.291620269E-2,-3.042109013E-1,3.451388702E-2
2.426861091E0,5.291620269E-2,-2.962696552E-1,4.062253982E-2
2.436861091E0,5.963572115E-2,-2.846632004E-1,4.795292020E-2
2.446861391E0,7.918340713E-2,-2.779437006E-1,5.528330430E-2
2.456861391E0,1.152244583E-1,-2.822197378E-1,6.383541971E-2
2.466861391E0,1.585958898E-1,-2.974913716E-1,6.811147183E-2
2.476861391E0,1.921934783E-1,-3.115412891E-1,7.422012836E-2
2.486861391E0,2.044107765E-1,-3.213151097E-1,7.116580009E-2
2.496861124E0,2.080759704E-1,-3.225368559E-1,7.177666575E-2
2.506861124E0,2.074651122E-1,-2.999348342E-1,6.627888232E-2
2.516861124E0,1.909717470E-1,-2.431243658E-1,4.856378585E-2
2.526861124E0,1.598176211E-1,-1.588249654E-1,2.290744707E-2
2.536861124E0,1.219439730E-1,-5.925392732E-2,-8.246680722E-3
2.546861124E0,7.979427278E-2,4.703662544E-2,-4.917465150E-2
2.556861390E0,6.269004941E-2,1.172861308E-1,-7.360926270E-2
2.566861390E0,4.069889709E-2,1.740965992E-1,-9.987647086E-2
2.576861123E0,3.703370690E-2,2.119702399E-1,-1.084285825E-1
2.586861123E0,4.558581859E-2,2.510656118E-1,-1.084285825E-1
2.596861123E0,5.902485549E-2,2.913827300E-1,-9.865473956E-2
2.606860856E0,7.673994452E-2,3.188716471E-1,-7.971791178E-2
2.616860856E0,9.445504099E-2,3.316998184E-1,-5.589416996E-2
2.626860856E0,1.127809957E-1,3.396410644E-1,-3.329215571E-2
2.636860489E0,1.207222417E-1,3.371976018E-1,-1.007927675E-2
2.646860489E0,1.268308908E-1,3.133738637E-1,8.857546374E-3
2.656860489E0,1.237765700E-1,2.761110961E-1,2.168571576E-2
2.666860489E0,1.109483987E-1,2.467895597E-1,2.168571576E-2
2.676860489E0,9.140071273E-2,2.327396572E-1,1.007927675E-2
2.686860489E0,6.146831438E-2,2.150245607E-1,-8.857546374E-3
2.696860755E0,1.992947794E-2,1.966986060E-1,-3.329215571E-2
2.706860755E0,-1.794416644E-2,1.881465018E-1,-5.467243865E-2
2.716860755E0,-6.620252132E-2,1.838704348E-1,-7.483099401E-2
2.726860755E0,-7.719809562E-2,1.869247705E-1,-7.910704613E-2
2.736860755E0,-7.292203605E-2,1.814269722E-1,-7.360926270E-2
2.746860455E0,-5.520694703E-2,1.569923609E-1,-5.894849449E-2
2.756860455E0,-2.893974073E-2,1.130100712E-1,-4.062253982E-2
2.766860455E0,8.323038928E-3,6.597344577E-2,-2.412917651E-2
2.776860455E0,4.130976275E-2,2.626720630E-2,-8.246680722E-3
2.786860455E0,6.513350457E-2,-8.552113548E-3,2.138028387E-3
2.796860455E0,7.735081017E-2,-3.787364438E-2,6.414085161E-3
2.806860721E0,7.673994452E-2,-6.352998316E-2,6.414085161E-3
2.816860721E0,6.574437022E-2,-8.307767659E-2,3.970623948E-3
2.826860721E0,4.619668424E-2,-9.773843735E-2,3.054326226E-4
2.836860721E0,2.359467000E-2,-1.081231460E-1,-5.803219974E-3
2.846860721E0,7.712173741E-3,-1.081231460E-1,-1.252273750E-2
2.856860454E0,-8.170322515E-3,-1.014036313E-1,-1.863138936E-2
2.866860454E0,-1.550070569E-2,-9.468411654E-2,-2.046398632E-2
2.876860454E0,-1.550070569E-2,-8.796459436E-2,-2.351831272E-2
2.886860454E0,-6.337726954E-3,-8.368854225E-2,-2.290744707E-2
2.896860454E0,7.101308554E-3,-8.246681094E-2,-2.046398632E-2
2.906860454E0,2.542726509E-2,-9.162978828E-2,-9.468411095E-3
2.916860454E0,4.986187443E-2,-1.044579595E-1,-3.054326226E-4
2.926860454E0,7.612907887E-2,-1.111774743E-1,9.468411095E-3
2.936860820E0,9.873109311E-2,-9.407325089E-2,1.252273750E-2
2.946861120E0,1.164461896E-1,-7.269296050E-2,1.313360315E-2
2.956861120E0,1.213331074E-1,-4.825835302E-2,1.069014147E-2
2.966861120E0,1.219439730E-1,-2.443460934E-2,7.024950348E-3
2.976861120E0,1.140027270E-1,-3.054326167E-3,-3.054326226E-4
2.986861120E0,1.097266674E-1,1.282817032E-2,-2.748893574E-3
2.996861120E0,1.005636901E-1,1.893682219E-2,-8.857546374E-3
3.006861120E0,9.262244403E-2,2.382374369E-2,-1.435533352E-2
3.016861120E0,8.284860104E-2,3.054326214E-2,-1.802052557E-2
3.026861120E0,7.857254148E-2,3.359758854E-2,-2.107485011E-2
3.036861120E0,7.551821321E-2,3.726277873E-2,-2.596177347E-2
3.046861120E0,7.918340713E-2,4.214970022E-2,-2.901609987E-2
3.056861386E0,8.712465316E-2,4.092797264E-2,-3.268129006E-2
3.066861386E0,9.934195876E-2,2.626720630E-2,-3.573561832E-2
3.076860952E0,1.060614809E-1,9.773843922E-3,-3.329215571E-2
3.086860952E0,1.048397496E-1,-4.886921961E-3,-3.023782931E-2
3.096860952E0,9.323330969E-2,-1.832595654E-2,-2.718350291E-2
3.106860685E0,8.773551881E-2,-3.543018550E-2,-2.412917651E-2
3.116860685E0,9.140071273E-2,-5.131268129E-2,-2.718350291E-2
3.126860685E0,1.042288840E-1,-7.024950534E-2,-2.657263726E-2
3.136860685E0,1.195005104E-1,-8.552113175E-2,-3.268129006E-2
3.146860685E0,1.408807933E-1,-9.896016866E-2,-3.634648025E-2
3.156860685E0,1.604284793E-1,-1.117883399E-1,-4.184427112E-2
3.166860685E0,1.781435758E-1,-1.227839142E-1,-4.612032697E-2
3.176860685E0,1.952477992E-1,-1.276708394E-1,-5.039638281E-2
3.186860685E0,2.056325078E-1,-1.301143020E-1,-5.406157300E-2
3.196860985E0,2.166280895E-1,-1.356120855E-1,-5.467243865E-2
3.206860985E0,2.245693356E-1,-1.362229437E-1,-5.467243865E-2
3.216860985E0,2.306779921E-1,-1.288925707E-1,-5.222897977E-2
3.226860985E0,2.312888503E-1,-1.215621829E-1,-5.039638281E-2
3.236860985E0,2.239584774E-1,-1.093448773E-1,-4.612032697E-2
3.246860685E0,2.025781870E-1,-9.590584040E-2,-4.123340547E-2
3.256860685E0,1.738675237E-1,-7.391469181E-2,-3.756821156E-2
3.266860685E0,1.414916664E-1,-5.070181563E-2,-2.962696366E-2
3.276860951E0,1.048397496E-1,-2.443460934E-2,-2.168571576E-2
3.286860951E0,6.818783283E-2,-1.221730490E-3,-1.557706390E-2
3.296860317E0,4.069889709E-2,1.771509275E-2,-9.468411095E-3
3.306860583E0,2.298380435E-2,3.665191308E-2,-6.414085161E-3
3.316860583E0,1.198823005E-2,4.703662544E-2,3.054326226E-4
3.326860583E0,7.712173741E-3,4.764748737E-2,5.192354787E-3
3.336860583E0,4.046982154E-3,4.642575979E-2,8.246680722E-3
3.346860583E0,3.817907709E-4,4.398229718E-2,1.191187184E-2
3.356860316E0,-3.894265974E-3,3.970624134E-2,1.069014147E-2
3.366860316E0,-2.290744742E-4,3.237585723E-2,1.130100712E-2
3.376860749E0,4.046982154E-3,2.565634064E-2,9.468411095E-3
3.386860749E0,8.933904581E-3,1.954768784E-2,6.414085161E-3
3.396860749E0,1.626428775E-2,1.282817032E-2,6.414085161E-3
3.406860749E0,2.420553565E-2,6.108652335E-3,2.748893574E-3
3.416860749E0,3.031418845E-2,-3.054326167E-3,3.054326226E-4
3.426860749E0,4.558581859E-2,-2.504547499E-2,-3.359758761E-3
3.436860749E0,5.597052723E-2,-3.909537569E-2,-3.970623948E-3
3.446861015E0,6.085744873E-2,-4.276056588E-2,-5.803219974E-3
3.456861015E0,6.757696718E-2,-4.642575979E-2,-8.246680722E-3
3.466861015E0,7.124216110E-2,-4.337143153E-2,-1.007927675E-2
3.476861015E0,6.940956414E-2,-3.848451003E-2,-1.191187184E-2
3.486861015E0,6.635523587E-2,-3.543018550E-2,-1.252273750E-2
3.496860715E0,6.024658307E-2,-3.787364438E-2,-1.557706390E-2
3.506860715E0,5.230533704E-2,-4.031710699E-2,-1.557706390E-2
3.516860715E0,4.192062840E-2,-4.214970022E-2,-1.863138936E-2
3.526860715E0,3.397937864E-2,-4.764748737E-2,-1.802052557E-2
3.536860715E0,3.275764734E-2,-5.742133409E-2,-1.924225502E-2
3.546860715E0,2.787072770E-2,-6.291911751E-2,-2.168571576E-2
3.556860981E0,2.725986205E-2,-6.414084882E-2,-2.474004216E-2
3.566860981E0,2.725986205E-2,-6.658431143E-2,-2.412917651E-2
3.576860714E0,2.970332280E-2,-6.536258012E-2,-2.229658142E-2
3.586860714E0,3.336851299E-2,-6.230825558E-2,-2.107485011E-2
3.596861080E0,3.581197560E-2,-5.925392732E-2,-1.985312067E-2
3.606860813E0,3.703370690E-2,-6.047565863E-2,-1.557706390E-2
3.616860813E0,3.459024429E-2,-6.047565863E-2,-1.007927675E-2
3.626860813E0,2.787072770E-2,-6.169738993E-2,-3.359758761E-3
3.636860813E0,2.359467000E-2,-6.230825558E-2,-9.162978968E-4
3.646860813E0,1.748601720E-2,-6.230825558E-2,6.414085161E-3
3.656860813E0,1.076649968E-2,-6.291911751E-2,8.857546374E-3
3.666860813E0,8.323038928E-3,-6.780604273E-2,1.130100712E-2
3.676860813E0,8.323038928E-3,-7.330382615E-2,1.252273750E-2
3.686860813E0,1.137736533E-2,-7.635815442E-2,8.857546374E-3
3.696861113E0,1.320996135E-2,-7.452555746E-2,9.468411095E-3
3.706861113E0,1.382082608E-2,-7.269296050E-2,7.635815535E-3
3.716861113E0,1.626428775E-2,-6.780604273E-2,5.192354787E-3
3.726861113E0,2.054034360E-2,-5.925392732E-2,-3.054326226E-4
3.736860713E0,2.481640130E-2,-5.497787148E-2,-4.581489135E-3
3.746860446E0,2.787072770E-2,-5.192354694E-2,-5.803219974E-3
3.756860446E0,3.214678168E-2,-4.764748737E-2,-8.246680722E-3
3.766860446E0,3.642284125E-2,-4.520402849E-2,-1.435533352E-2
3.776860446E0,4.253149405E-2,-4.031710699E-2,-1.252273750E-2
3.786860446E0,4.436408728E-2,-3.481931984E-2,-1.435533352E-2
3.796860446E0,4.436408728E-2,-2.993239649E-2,-1.374446787E-2
3.806860712E0,4.375322163E-2,-2.565634064E-2,-1.252273750E-2
3.816860712E0,3.886630014E-2,-1.893682219E-2,-1.130100712E-2
3.826860712E0,3.275764734E-2,-1.038470957E-2,-1.130100712E-2
3.836860712E0,2.542726509E-2,-0.000000000E0,-7.635815535E-3
3.849356846E0,1.687515154E-2,4.276056774E-3,-5.192354787E-3
3.859356579E0,7.712173741E-3,7.941247895E-3,3.054326226E-4
3.869356579E0,-8.399396902E-4,1.160643995E-2,1.527163084E-3
3.879356579E0,-6.337726954E-3,1.404990070E-2,3.970623948E-3
3.889356579E0,-4.505131394E-3,1.099557430E-2,5.192354787E-3
3.899356579E0,-8.399396902E-4,4.276056774E-3,2.138028387E-3
3.909356579E0,7.712173741E-3,-3.054326167E-3,2.748893574E-3
3.919356579E0,1.870774850E-2,-1.282817032E-2,2.138028387E-3
3.929356579E0,2.787072770E-2,-2.076941915E-2,2.748893574E-3
3.939356579E0,3.581197560E-2,-2.687807009E-2,9.162978968E-4
3.949356845E0,4.741841555E-2,-2.809980139E-2,-3.054326226E-4
3.959356845E0,5.597052723E-2,-3.115412779E-2,-9.162978968E-4
3.969356845E0,5.963572115E-2,-3.665191308E-2,-3.054326226E-4
3.979356845E0,6.146831438E-2,-4.153883830E-2,-3.054326226E-4
3.989356845E0,6.452263892E-2,-5.253441259E-2,-9.162978968E-4
3.999356545E0,6.818783283E-2,-6.230825558E-2,-1.527163084E-3
4.009356545E0,6.940956414E-2,-6.658431143E-2,-6.414085161E-3
4.019356545E0,6.879869848E-2,-6.536258012E-2,-7.635815535E-3
4.029356545E0,6.207918003E-2,-6.658431143E-2,-2.748893574E-3
4.039356945E0,5.474879593E-2,-6.536258012E-2,3.054326226E-4
4.049356945E0,4.925100878E-2,-6.047565863E-2,4.581489135E-3
4.059357011E0,4.069889709E-2,-5.009094998E-2,7.024950348E-3
4.069357011E0,3.153591976E-2,-4.642575979E-2,1.007927675E-2
4.079357011E0,2.664899640E-2,-4.398229718E-2,1.374446787E-2
4.089357011E0,2.420553565E-2,-4.337143153E-2,1.557706390E-2
4.099357011E0,1.748601720E-2,-3.970624134E-2,1.618792862E-2
4.109356744E0,1.809688285E-2,-3.726277873E-2,1.679879427E-2
4.119356744E0,9.544769302E-3,-2.809980139E-2,1.740965992E-2
4.129356744E0,3.436116967E-3,-1.099557430E-2,2.046398632E-2
4.139356744E0,-2.672535367E-3,5.497787148E-3,2.107485011E-2
4.149356744E0,-1.183551457E-2,2.138028294E-2,2.229658142E-2
4.159356744E0,-1.550070569E-2,3.543018550E-2,2.168571576E-2
4.169356744E0,-1.794416644E-2,5.314527452E-2,1.985312067E-2
4.179356744E0,-1.733330078E-2,6.963863969E-2,1.557706390E-2
4.189356744E0,-1.611157134E-2,8.613199741E-2,1.435533352E-2
4.199357044E0,-1.733330078E-2,1.014036313E-1,9.468411095E-3
4.209357044E0,-1.366810966E-2,1.093448773E-1,2.748893574E-3
4.219357044E0,-1.183551457E-2,1.178969890E-1,1.527163084E-3
4.229357044E0,-6.337726954E-3,1.185078546E-1,-1.527163084E-3
4.239357044E0,-1.427897532E-2,1.227839142E-1,-2.138028387E-3
4.249356777E0,-1.183551457E-2,1.233947799E-1,-4.581489135E-3
4.259356777E0,-1.366810966E-2,1.215621829E-1,-5.192354787E-3
4.269356777E0,-2.160935849E-2,1.240056455E-1,-7.024950348E-3
4.279356777E0,-1.427897532E-2,1.209513173E-1,-5.803219974E-3
4.289356777E0,-1.855503209E-2,1.185078546E-1,-8.246680722E-3
4.299356777E0,-1.122464892E-2,1.130100712E-1,-8.857546374E-3
4.309357043E0,-2.061670180E-3,1.099557430E-1,-9.468411095E-3
4.319357043E0,1.603521290E-3,1.075122803E-1,-9.468411095E-3
4.329357043E0,1.137736533E-2,9.957103431E-2,-1.007927675E-2
4.339357043E0,1.259909570E-2,1.007927656E-1,-8.246680722E-3
4.349357043E0,1.382082608E-2,9.957103431E-2,-8.857546374E-3
4.359357243E0,1.565342210E-2,9.468411654E-2,-9.468411095E-3
4.369357243E0,1.443169173E-2,9.285151958E-2,-1.374446787E-2
4.379357243E0,1.015563495E-2,9.101892263E-2,-1.252273750E-2
4.389357243E0,1.198823005E-2,8.857546002E-2,-1.313360315E-2
4.399357243E0,1.626428775E-2,8.674286306E-2,-1.130100712E-2
4.409357243E0,1.565342210E-2,8.918632567E-2,-6.414085161E-3
4.419357243E0,1.809688285E-2,8.918632567E-2,-3.970623948E-3
4.429357243E0,1.748601720E-2,9.346238524E-2,-2.138028387E-3
4.439357243E0,1.504255645E-2,9.407325089E-2,3.054326226E-4
4.449357509E0,8.933904581E-3,9.346238524E-2,3.359758761E-3
4.459357509E0,9.926559869E-4,8.796459436E-2,7.024950348E-3
4.469357509E0,-1.183551457E-2,8.002334833E-2,1.130100712E-2
4.479357509E0,-2.099849284E-2,7.208210230E-2,1.313360315E-2
4.489357509E0,-3.627012298E-2,6.047565863E-2,1.435533352E-2
4.499357209E0,-3.810271993E-2,4.642575979E-2,1.252273750E-2
4.509357209E0,-3.199406713E-2,2.993239649E-2,1.191187184E-2
4.519357209E0,-1.916589774E-2,7.330383174E-3,1.313360315E-2
4.529357209E0,-5.726861767E-3,-1.221730467E-2,8.857546374E-3
4.539357209E0,1.809688285E-2,-3.604105115E-2,7.635815535E-3
4.549357209E0,3.214678168E-2,-5.375614017E-2,3.970623948E-3
4.559357475E0,4.741841555E-2,-6.658431143E-2,3.054326226E-4
4.569357475E0,6.269004941E-2,-7.635815442E-2,-1.527163084E-3
4.579357475E0,7.246389240E-2,-8.491026610E-2,-9.162978968E-4
4.589357475E0,7.429648191E-2,-9.346238524E-2,-2.138028387E-3
4.599357475E0,8.040513843E-2,-1.062905490E-1,-4.581489135E-3
4.609357208E0,7.735081017E-2,-1.209513173E-1,-5.803219974E-3
4.619357208E0,6.940956414E-2,-1.337794960E-1,-4.581489135E-3
4.629357208E0,7.124216110E-2,-1.514945775E-1,-6.414085161E-3
4.639357474E0,6.452263892E-2,-1.655444801E-1,-2.748893574E-3
4.649357474E0,5.841398984E-2,-1.734857261E-1,-5.192354787E-3
4.659357207E0,5.291620269E-2,-1.704314053E-1,-3.359758761E-3
4.669357207E0,4.314235970E-2,-1.661553532E-1,-3.970623948E-3
4.679357207E0,3.947716579E-2,-1.594358236E-1,-2.748893574E-3
4.689357207E0,3.459024429E-2,-1.484402567E-1,-2.138028387E-3
4.699357507E0,2.787072770E-2,-1.337794960E-1,-3.359758761E-3
4.709357507E0,2.909245715E-2,-1.258382350E-1,-3.970623948E-3
4.719357507E0,3.459024429E-2,-1.191187203E-1,-5.803219974E-3
4.729357507E0,3.886630014E-2,-1.044579595E-1,-4.581489135E-3
4.739357507E0,4.375322163E-2,-9.101892263E-2,-6.414085161E-3
4.749357240E0,5.169447139E-2,-8.124507964E-2,-4.581489135E-3
4.759357240E0,4.314235970E-2,-6.169738993E-2,-3.359758761E-3
4.769357240E0,4.497495294E-2,-4.337143153E-2,-3.970623948E-3
4.779357240E0,4.619668424E-2,-1.893682219E-2,-4.581489135E-3
4.789357240E0,4.680754989E-2,3.054326167E-3,-3.359758761E-3
4.799357240E0,4.802928120E-2,1.710422710E-2,-2.138028387E-3
4.809357506E0,4.375322163E-2,2.199114859E-2,1.527163084E-3
4.819357506E0,4.192062840E-2,2.015855350E-2,3.970623948E-3
4.829357506E0,3.764457256E-2,1.466076635E-2,5.192354787E-3
4.839357506E0,2.909245715E-2,9.162978269E-3,2.138028387E-3
4.849357506E0,2.664899640E-2,8.552113548E-3,9.162978968E-4
4.859357239E0,1.809688285E-2,1.160643995E-2,-2.748893574E-3
4.869357239E0,8.323038928E-3,1.588249579E-2,-3.359758761E-3
4.879357239E0,-2.290744742E-4,1.466076635E-2,-3.054326226E-4
4.889357239E0,-1.305724494E-2,1.038470957E-2,1.527163084E-3
4.899357239E0,-1.794416644E-2,6.108652335E-3,5.192354787E-3
4.909357239E0,-1.977676153E-2,-1.832595794E-3,8.857546374E-3
4.919357239E0,-2.283108793E-2,-4.886921961E-3,1.069014147E-2
4.929357239E0,-2.222022414E-2,-3.665191587E-3,1.191187184E-2
4.939356972E0,-2.344195358E-2,-0.000000000E0,1.374446787E-2
4.949357238E0,-2.771801129E-2,6.108652451E-4,1.740965992E-2
4.959357238E0,-3.077233583E-2,5.497787148E-3,1.924225502E-2
4.969357238E0,-3.504839167E-2,1.160643995E-2,2.046398632E-2
4.979357238E0,-3.627012298E-2,1.160643995E-2,2.229658142E-2
4.989357238E0,-3.443752974E-2,4.886921961E-3,2.046398632E-2
4.999356938E0,-3.443752974E-2,6.108652335E-3,1.618792862E-2
5.009356938E0,-3.199406713E-2,6.719517522E-3,1.069014147E-2
5.019356938E0,-2.893974073E-2,2.443460980E-3,2.748893574E-3
5.029356938E0,-2.649627998E-2,1.832595794E-3,-8.246680722E-3
5.039356938E0,-1.916589774E-2,6.719517522E-3,-1.679879427E-2
5.049356938E0,-1.427897532E-2,1.282817032E-2,-2.474004216E-2
5.059357204E0,-9.392052889E-3,2.382374369E-2,-3.268129006E-2
5.069357204E0,-5.115996581E-3,3.726277873E-2,-3.878994286E-2
5.079357204E0,-3.283400787E-3,5.070181563E-2,-4.184427112E-2
5.089357204E0,-7.559457328E-3,6.169738993E-2,-4.306599870E-2
5.099357470E0,-1.244637929E-2,7.330382615E-2,-4.367686436E-2
5.109357203E0,-1.366810966E-2,7.574728876E-2,-4.001167417E-2
5.119357203E0,-1.550070569E-2,7.696902007E-2,-3.634648025E-2
5.129357203E0,-1.855503209E-2,7.941248268E-2,-3.207042441E-2
5.139357203E0,-9.392052889E-3,7.269296050E-2,-2.535090782E-2
5.149357203E0,-2.672535367E-3,6.291911751E-2,-2.351831272E-2
5.159357203E0,3.436116967E-3,5.742133409E-2,-2.290744707E-2
5.169357203E0,1.603521290E-3,5.375614017E-2,-2.412917651E-2
5.179357203E0,1.603521290E-3,5.253441259E-2,-2.535090782E-2
5.189357203E0,2.214386594E-3,5.070181563E-2,-2.840523422E-2
5.199357236E0,4.046982154E-3,5.131268129E-2,-3.084869497E-2
5.209357236E0,2.214386594E-3,4.398229718E-2,-3.145955876E-2
5.219357236E0,-2.672535367E-3,3.237585723E-2,-2.840523422E-2
5.229357236E0,-1.183551457E-2,2.199114859E-2,-2.107485011E-2
5.239357236E0,-1.794416644E-2,9.773843922E-3,-1.374446787E-2
5.249356969E0,-1.794416644E-2,-8.552113548E-3,-5.803219974E-3
5.259356969E0,-1.611157134E-2,-2.687807009E-2,2.748893574E-3
5.269356969E0,-1.733330078E-2,-3.665191308E-2,1.069014147E-2
5.279356969E0,-1.427897532E-2,-4.398229718E-2,1.496619824E-2
5.289356969E0,-9.392052889E-3,-5.009094998E-2,1.863138936E-2
5.299356969E0,-1.450804994E-3,-4.886921868E-2,2.046398632E-2
5.309357235E0,5.879578181E-3,-4.581489414E-2,2.046398632E-2
5.319357235E0,1.076649968E-2,-4.581489414E-2,1.985312067E-2
5.329357235E0,2.237293869E-2,-5.192354694E-2,1.924225502E-2
5.339357235E0,1.992947794E-2,-5.742133409E-2,1.618792862E-2
5.349357235E0,1.870774850E-2,-6.291911751E-2,1.496619824E-2
5.359356968E0,1.931861416E-2,-6.475171447E-2,1.252273750E-2
5.369356968E0,1.259909570E-2,-6.352998316E-2,1.313360315E-2
5.379356968E0,1.076649968E-2,-6.108652428E-2,1.191187184E-2
5.389356968E0,1.137736533E-2,-5.742133409E-2,1.252273750E-2
5.399356701E0,9.544769302E-3,-5.558873713E-2,1.557706390E-2
5.409356701E0,4.657847341E-3,-4.886921868E-2,1.435533352E-2
5.419356701E0,1.603521290E-3,-4.276056588E-2,1.435533352E-2
5.429356701E0,6.490443368E-3,-4.092797264E-2,1.130100712E-2
5.439356701E0,2.825251780E-3,-3.054326214E-2,8.246680722E-3
5.449356967E0,3.817907709E-4,-2.382374369E-2,6.414085161E-3
5.459356967E0,-6.337726954E-3,-1.404990070E-2,7.024950348E-3
5.469356967E0,-1.061378326E-2,-4.276056774E-3,8.246680722E-3
5.479356967E0,-1.183551457E-2,6.108652335E-3,8.246680722E-3
5.489356967E0,-1.000291854E-2,1.221730467E-2,1.007927675E-2
5.499356933E0,-1.450804994E-3,1.893682219E-2,9.468411095E-3
5.509356933E0,2.214386594E-3,2.565634064E-2,7.635815535E-3
5.519356933E0,9.544769302E-3,2.748893574E-2,1.527163084E-3
5.529356933E0,1.687515154E-2,2.687807009E-2,-1.527163084E-3
5.539356933E0,1.992947794E-2,2.260201424E-2,-9.162978968E-4
5.549356933E0,1.443169173E-2,1.527163107E-2,-3.359758761E-3
5.559357199E0,1.137736533E-2,1.160643995E-2,-2.748893574E-3
5.569357199E0,2.214386594E-3,9.773843922E-3,-9.162978968E-4
5.579357199E0,9.926559869E-4,3.054326167E-3,2.138028387E-3
5.589357199E0,3.817907709E-4,-0.000000000E0,1.527163084E-3
5.599357199E0,2.825251780E-3,-5.497787148E-3,4.581489135E-3
5.609356932E0,7.101308554E-3,-1.282817032E-2,8.857546374E-3
5.619356932E0,7.712173741E-3,-1.954768784E-2,7.024950348E-3
5.629356932E0,5.879578181E-3,-2.138028294E-2,9.468411095E-3
5.639356932E0,-2.061670180E-3,-2.443460934E-2,1.007927675E-2
5.649356932E0,2.214386594E-3,-3.359758854E-2,6.414085161E-3
5.659356932E0,5.268712528E-3,-3.665191308E-2,3.970623948E-3
5.669356932E0,2.825251780E-3,-3.909537569E-2,3.359758761E-3
5.679356932E0,-7.559457328E-3,-3.665191308E-2,2.138028387E-3
5.689356932E0,-6.948592141E-3,-3.970624134E-2,2.138028387E-3
5.699357232E0,-6.337726954E-3,-3.543018550E-2,3.359758761E-3
5.709357232E0,-8.170322515E-3,-2.687807009E-2,4.581489135E-3
5.719357232E0,-1.122464892E-2,-1.954768784E-2,6.414085161E-3
5.729357232E0,-5.115996581E-3,-1.282817032E-2,3.970623948E-3
5.739357232E0,-9.392052889E-3,-4.276056774E-3,1.007927675E-2
5.749356965E0,-1.000291854E-2,-0.000000000E0,8.857546374E-3
5.759356965E0,-1.000291854E-2,1.221730490E-3,7.024950348E-3
5.769356965E0,-2.061670180E-3,1.221730490E-3,3.970623948E-3
5.779356965E0,4.657847341E-3,1.221730490E-3,2.748893574E-3
5.789356965E0,4.046982154E-3,9.162978269E-3,-1.527163084E-3
5.799356965E0,1.076649968E-2,1.099557430E-2,-4.581489135E-3
5.809357231E0,8.323038928E-3,1.343903504E-2,-3.359758761E-3
5.819357231E0,1.015563495E-2,7.330383174E-3,-5.803219974E-3
5.829357231E0,1.137736533E-2,6.108652335E-3,-7.635815535E-3
5.839357231E0,1.992947794E-2,1.221730490E-3,-8.857546374E-3
5.849357231E0,2.176207490E-2,-3.054326167E-3,-8.857546374E-3
5.859356964E0,2.176207490E-2,-1.038470957E-2,-1.130100712E-2
5.869356964E0,7.712173741E-3,-1.343903504E-2,-1.007927675E-2
5.879356964E0,1.198823005E-2,-2.076941915E-2,-9.468411095E-3
5.889356964E0,-8.399396902E-4,-2.382374369E-2,-8.857546374E-3
5.899356964E0,-3.283400787E-3,-2.626720630E-2,-4.581489135E-3
5.909356964E0,-6.337726954E-3,-2.871066704E-2,2.138028387E-3
5.919356964E0,-1.305724494E-2,-2.687807009E-2,5.192354787E-3
5.929356964E0,-1.794416644E-2,-1.893682219E-2,5.803219974E-3
5.939356964E0,-1.122464892E-2,-1.771509275E-2,6.414085161E-3
5.949357230E0,-8.781188168E-3,-1.343903504E-2,8.857546374E-3
5.959357230E0,-1.061378326E-2,-5.497787148E-3,6.414085161E-3
5.969357230E0,-9.392052889E-3,6.108652451E-4,8.246680722E-3
5.979357230E0,-7.559457328E-3,1.221730490E-3,9.468411095E-3
5.989357230E0,-1.550070569E-2,6.719517522E-3,1.130100712E-2
5.999356930E0,-1.061378326E-2,8.552113548E-3,8.246680722E-3
6.009356930E0,-1.122464892E-2,9.773843922E-3,8.857546374E-3
6.019356930E0,-8.781188168E-3,6.108652335E-3,1.069014147E-2
6.029356930E0,-1.550070569E-2,9.773843922E-3,8.857546374E-3
6.039356930E0,-1.000291854E-2,9.773843922E-3,8.857546374E-3
6.049356930E0,-1.611157134E-2,8.552113548E-3,9.468411095E-3
6.059357196E0,-1.794416644E-2,9.773843922E-3,8.246680722E-3
6.069357196E0,-1.488984004E-2,9.773843922E-3,6.414085161E-3
6.079357196E0,-1.183551457E-2,8.552113548E-3,8.857546374E-3
6.089357196E0,-1.794416644E-2,8.552113548E-3,8.857546374E-3
6.099357196E0,-1.794416644E-2,8.552113548E-3,6.414085161E-3
6.109356929E0,-2.160935849E-2,1.038470957E-2,7.635815535E-3
6.119356929E0,-2.710714564E-2,1.221730467E-2,7.635815535E-3
6.129356929E0,-2.649627998E-2,1.343903504E-2,4.581489135E-3
6.139356929E0,-3.077233583E-2,1.771509275E-2,5.803219974E-3
6.149356929E0,-2.893974073E-2,1.954768784E-2,7.024950348E-3
6.159356929E0,-2.710714564E-2,2.076941915E-2,6.414085161E-3
6.169356929E0,-2.710714564E-2,2.015855350E-2,7.024950348E-3
6.179356929E0,-2.222022414E-2,2.076941915E-2,8.857546374E-3
6.189356929E0,-1.977676153E-2,1.832595654E-2,8.857546374E-3
6.199357229E0,-2.038762718E-2,2.015855350E-2,1.007927675E-2
6.209357229E0,-1.916589774E-2,2.260201424E-2,8.857546374E-3
6.219357229E0,-1.855503209E-2,2.138028294E-2,9.468411095E-3
6.229357229E0,-1.855503209E-2,2.260201424E-2,1.130100712E-2
6.239357229E0,-1.733330078E-2,2.382374369E-2,1.069014147E-2
6.249356962E0,-1.244637929E-2,2.260201424E-2,1.007927675E-2
6.259356962E0,-1.122464892E-2,1.771509275E-2,9.468411095E-3
6.269356962E0,-1.244637929E-2,1.527163107E-2,1.007927675E-2
6.279356962E0,-1.244637929E-2,1.038470957E-2,1.007927675E-2
6.289356962E0,-1.244637929E-2,7.941247895E-3,1.007927675E-2
6.299356962E0,-1.733330078E-2,8.552113548E-3,1.007927675E-2
6.309357228E0,-1.611157134E-2,7.941247895E-3,9.468411095E-3
6.319357228E0,-1.244637929E-2,4.886921961E-3,7.024950348E-3
6.329357228E0,-1.061378326E-2,4.276056774E-3,7.024950348E-3
6.339357228E0,-8.781188168E-3,3.665191587E-3,3.970623948E-3
6.349357228E0,-1.450804994E-3,-0.000000000E0,2.748893574E-3
6.359356961E0,1.603521290E-3,6.108652451E-4,2.748893574E-3
6.369356961E0,5.268712528E-3,4.276056774E-3,-9.162978968E-4
6.379356961E0,5.268712528E-3,6.108652335E-3,-2.748893574E-3
6.389356961E0,8.933904581E-3,6.108652451E-4,-9.162978968E-4
6.399356961E0,7.101308554E-3,3.054326167E-3,-3.970623948E-3
6.409356961E0,5.879578181E-3,3.665191587E-3,-3.970623948E-3
6.419356961E0,5.268712528E-3,3.054326167E-3,-2.748893574E-3
6.429356961E0,4.046982154E-3,6.108652451E-4,-2.138028387E-3
6.439356961E0,2.214386594E-3,2.443460980E-3,-2.748893574E-3
6.449357261E0,9.926559869E-4,2.443460980E-3,-4.581489135E-3
6.459357261E0,3.436116967E-3,-1.221730490E-3,-3.970623948E-3
6.469357261E0,5.879578181E-3,-1.221730490E-3,-5.192354787E-3
6.479357261E0,1.015563495E-2,4.886921961E-3,-1.252273750E-2
6.489357261E0,1.809688285E-2,6.719517522E-3,-1.496619824E-2
6.499356961E0,1.870774850E-2,9.162978269E-3,-1.557706390E-2
6.509356961E0,1.320996135E-2,1.099557430E-2,-1.863138936E-2
6.519356961E0,1.565342210E-2,7.941247895E-3,-2.168571576E-2
6.529356961E0,1.687515154E-2,4.886921961E-3,-1.985312067E-2
6.539356961E0,1.382082608E-2,4.886921961E-3,-1.985312067E-2
6.549356961E0,1.382082608E-2,7.330383174E-3,-1.985312067E-2
6.559357227E0,1.259909570E-2,7.330383174E-3,-1.618792862E-2
6.569357227E0,5.879578181E-3,6.108652335E-3,-1.374446787E-2
6.579357227E0,-2.672535367E-3,6.108652451E-4,-1.130100712E-2
6.589357227E0,-1.000291854E-2,-7.941247895E-3,-5.192354787E-3
6.599357227E0,-1.550070569E-2,-1.160643995E-2,-5.192354787E-3
6.609356960E0,-1.794416644E-2,-1.404990070E-2,-2.748893574E-3
6.619356960E0,-1.855503209E-2,-1.649336144E-2,-2.138028387E-3
6.629356960E0,-1.366810966E-2,-2.015855350E-2,-5.192354787E-3
6.639356960E0,-9.392052889E-3,-2.748893574E-2,-9.468411095E-3
6.649356960E0,-1.122464892E-2,-1.832595654E-2,-1.069014147E-2
6.659356960E0,-1.244637929E-2,-5.497787148E-3,-1.130100712E-2
6.669356960E0,-1.366810966E-2,5.497787148E-3,-8.857546374E-3
6.679356960E0,-2.160935849E-2,1.282817032E-2,-7.635815535E-3
6.689356960E0,-2.405281924E-2,1.221730467E-2,-6.414085161E-3
6.699357260E0,-2.893974073E-2,1.221730467E-2,-6.414085161E-3
6.709357260E0,-2.710714564E-2,7.330383174E-3,-5.803219974E-3
6.719357260E0,-2.649627998E-2,7.330383174E-3,-7.635815535E-3
6.729357260E0,-2.099849284E-2,9.162978269E-3,-1.191187184E-2
6.739357260E0,-1.611157134E-2,1.649336144E-2,-1.679879427E-2
6.749356960E0,-9.392052889E-3,2.504547499E-2,-2.229658142E-2
6.759356960E0,-1.000291854E-2,3.481931984E-2,-2.657263726E-2
6.769356960E0,-1.000291854E-2,4.520402849E-2,-2.718350291E-2
6.779356960E0,-2.099849284E-2,5.742133409E-2,-2.657263726E-2
6.789356960E0,-2.771801129E-2,6.780604273E-2,-2.107485011E-2
6.799356960E0,-3.565925732E-2,7.330382615E-2,-1.374446787E-2
6.809357226E0,-5.215261877E-2,8.124507964E-2,-8.246680722E-3
6.819357226E0,-6.009386852E-2,9.162978828E-2,-9.162978968E-4
6.829357226E0,-6.803511828E-2,9.834930301E-2,3.970623948E-3
6.839357226E0,-7.536549866E-2,1.038470939E-1,6.414085161E-3
6.849357226E0,-7.841982692E-2,1.093448773E-1,5.192354787E-3
6.859356959E0,-8.452847600E-2,1.130100712E-1,1.130100712E-2
6.869356959E0,-8.636107296E-2,1.136209369E-1,1.374446787E-2
6.879356959E0,-8.269587904E-2,1.148426682E-1,1.618792862E-2
6.889356959E0,-7.597636431E-2,1.117883399E-1,1.802052557E-2
6.899356959E0,-6.559165567E-2,1.038470939E-1,1.740965992E-2
6.909356959E0,-6.070473418E-2,9.651670605E-2,1.618792862E-2
6.919356959E0,-4.543310404E-2,8.307767659E-2,1.313360315E-2
6.929356959E0,-3.199406713E-2,7.269296050E-2,8.857546374E-3
6.939356959E0,-1.672243699E-2,6.475171447E-2,2.748893574E-3
6.949357225E0,-2.290744742E-4,6.352998316E-2,-5.803219974E-3
6.959357225E0,7.101308554E-3,6.352998316E-2,-1.252273750E-2
6.969357225E0,8.323038928E-3,7.269296050E-2,-2.046398632E-2
6.979357225E0,1.015563495E-2,7.391469181E-2,-2.351831272E-2
6.989357225E0,7.101308554E-3,7.696902007E-2,-2.657263726E-2
6.999356925E0,9.926559869E-4,7.635815442E-2,-2.718350291E-2
7.009356925E0,3.817907709E-4,7.452555746E-2,-2.657263726E-2
7.019356925E0,4.046982154E-3,6.597344577E-2,-2.596177347E-2
7.029356925E0,-2.290744742E-4,5.375614017E-2,-2.412917651E-2
7.039356925E0,-5.115996581E-3,4.092797264E-2,-1.557706390E-2
7.049356925E0,-8.781188168E-3,3.481931984E-2,-8.857546374E-3
7.059357191E0,-9.392052889E-3,3.726277873E-2,3.054326226E-4
7.069357191E0,-1.183551457E-2,4.520402849E-2,8.857546374E-3
7.079357191E0,-1.550070569E-2,5.681046844E-2,1.252273750E-2
7.089357191E0,-1.611157134E-2,6.475171447E-2,1.618792862E-2
7.099357191E0,-1.916589774E-2,6.780604273E-2,2.046398632E-2
7.109356924E0,-2.588541433E-2,6.658431143E-2,2.474004216E-2
7.119356924E0,-2.893974073E-2,5.864306539E-2,2.718350291E-2
7.129356924E0,-2.955060638E-2,4.398229718E-2,2.840523422E-2
7.139356924E0,-2.222022414E-2,2.932153270E-2,2.535090782E-2
7.149356924E0,-1.855503209E-2,1.710422710E-2,2.229658142E-2
7.159356924E0,-1.061378326E-2,3.665191587E-3,1.863138936E-2
7.169356924E0,-8.170322515E-3,-7.941247895E-3,1.435533352E-2
7.179356924E0,-2.061670180E-3,-1.404990070E-2,1.130100712E-2
7.189356924E0,2.825251780E-3,-1.282817032E-2,6.414085161E-3
7.199357190E0,5.268712528E-3,-8.552113548E-3,3.970623948E-3
7.209357190E0,7.712173741E-3,-6.719517522E-3,9.162978968E-4
7.219357190E0,8.323038928E-3,-7.941247895E-3,-3.359758761E-3
7.229357190E0,5.268712528E-3,-1.038470957E-2,-7.635815535E-3
7.239357190E0,5.268712528E-3,-1.893682219E-2,-1.069014147E-2
7.249356923E0,9.544769302E-3,-2.871066704E-2,-1.374446787E-2
7.259356923E0,7.101308554E-3,-3.359758854E-2,-1.496619824E-2
7.269356923E0,-8.399396902E-4,-3.543018550E-2,-1.496619824E-2
7.279356923E0,-2.061670180E-3,-4.153883830E-2,-1.007927675E-2
7.289356923E0,-8.170322515E-3,-3.665191308E-2,-1.130100712E-2
7.299356923E0,-1.000291854E-2,-2.809980139E-2,-8.246680722E-3
7.309357189E0,-6.337726954E-3,-2.138028294E-2,-8.246680722E-3
7.319357189E0,-8.781188168E-3,-1.527163107E-2,-4.581489135E-3
7.329357189E0,-1.488984004E-2,-1.099557430E-2,-2.748893574E-3
7.339357189E0,-2.099849284E-2,-5.497787148E-3,-3.054326226E-4
7.349357189E0,-2.649627998E-2,-0.000000000E0,3.054326226E-4
7.359356922E0,-2.771801129E-2,5.497787148E-3,3.970623948E-3
7.369356922E0,-2.710714564E-2,5.497787148E-3,5.192354787E-3
7.379356922E0,-2.466368489E-2,7.941247895E-3,8.246680722E-3
7.389356922E0,-3.321579844E-2,1.710422710E-2,5.803219974E-3
7.399356922E0,-3.993531689E-2,2.138028294E-2,8.857546374E-3
7.409356922E0,-4.543310404E-2,2.260201424E-2,7.635815535E-3
7.419356922E0,-4.421137273E-2,1.466076635E-2,1.130100712E-2
7.429356922E0,-3.810271993E-2,1.099557430E-2,1.252273750E-2
7.439356922E0,-3.749185428E-2,8.552113548E-3,1.435533352E-2
7.449357188E0,-1.855503209E-2,3.665191587E-3,1.435533352E-2
7.459357188E0,-1.488984004E-2,9.773843922E-3,1.191187184E-2
7.469357188E0,-1.000291854E-2,1.954768784E-2,7.635815535E-3
7.479357188E0,-2.290744742E-4,2.687807009E-2,3.359758761E-3
7.489357188E0,-2.290744742E-4,3.359758854E-2,-2.138028387E-3
7.499356921E0,4.657847341E-3,3.543018550E-2,-4.581489135E-3
7.509356921E0,8.323038928E-3,3.298672289E-2,-5.803219974E-3
7.519356921E0,1.137736533E-2,3.481931984E-2,-8.246680722E-3
7.529356921E0,8.323038928E-3,4.214970022E-2,-1.191187184E-2
7.539356921E0,5.879578181E-3,5.253441259E-2,-1.557706390E-2
7.549356921E0,2.214386594E-3,6.536258012E-2,-1.374446787E-2
7.559357187E0,-6.948592141E-3,7.819075137E-2,-1.252273750E-2
7.569357187E0,-1.183551457E-2,8.918632567E-2,-8.246680722E-3
7.579357187E0,-1.672243699E-2,9.896016866E-2,-3.359758761E-3
7.589357187E0,-2.710714564E-2,1.111774743E-1,-9.162978968E-4
7.599357187E0,-3.871358559E-2,1.130100712E-1,4.581489135E-3
7.609356920E0,-5.032002553E-2,1.142318025E-1,5.192354787E-3
7.619356920E0,-6.009386852E-2,1.117883399E-1,7.024950348E-3
7.629356920E0,-6.864598393E-2,1.014036313E-1,1.130100712E-2
7.639356920E0,-7.658722997E-2,9.407325089E-2,1.679879427E-2
7.649356920E0,-9.430231899E-2,9.101892263E-2,2.046398632E-2
7.659356920E0,-1.114065498E-1,8.063421398E-2,2.535090782E-2
7.669356920E0,-1.114065498E-1,6.230825558E-2,3.084869497E-2
7.679356920E0,-1.162934676E-1,4.031710699E-2,3.634648025E-2
7.689356920E0,-1.224021241E-1,3.848451003E-2,3.390302137E-2
7.699357220E0,-1.138500124E-1,3.787364438E-2,2.779436857E-2
7.709357220E0,-1.120174155E-1,3.787364438E-2,2.168571576E-2
7.719357220E0,-1.095739529E-1,4.092797264E-2,1.496619824E-2
7.729357220E0,-1.059087589E-1,4.337143153E-2,7.024950348E-3
7.739357220E0,-1.004109755E-1,4.459316283E-2,-1.527163084E-3
7.749356953E0,-9.491318464E-2,4.764748737E-2,-8.857546374E-3
7.759356953E0,-6.864598393E-2,4.398229718E-2,-1.252273750E-2
7.769356953E0,-5.276348442E-2,4.459316283E-2,-1.496619824E-2
7.779357219E0,-2.649627998E-2,3.848451003E-2,-1.374446787E-2
7.789357219E0,-9.392052889E-3,2.932153270E-2,-1.007927675E-2
7.799357219E0,1.320996135E-2,1.343903504E-2,-4.581489135E-3
7.809357485E0,2.909245715E-2,-0.000000000E0,2.748893574E-3
7.819357485E0,3.825543448E-2,-4.886921961E-3,4.581489135E-3
7.829357485E0,4.436408728E-2,-3.054326167E-3,9.468411095E-3
7.839357485E0,5.474879593E-2,1.832595794E-3,1.007927675E-2
7.849357485E0,5.658139288E-2,1.404990070E-2,1.252273750E-2
7.859357218E0,6.146831438E-2,2.504547499E-2,1.313360315E-2
7.869357218E0,6.085744873E-2,3.237585723E-2,1.557706390E-2
7.879357218E0,6.024658307E-2,3.481931984E-2,1.374446787E-2
7.889357218E0,6.452263892E-2,3.298672289E-2,1.924225502E-2
7.899357218E0,6.024658307E-2,2.993239649E-2,2.290744707E-2
7.909357218E0,6.818783283E-2,2.260201424E-2,2.229658142E-2
7.919357218E0,7.307475805E-2,2.504547499E-2,1.740965992E-2
7.929357218E0,7.246389240E-2,2.871066704E-2,1.740965992E-2
7.939357218E0,6.085744873E-2,3.420845419E-2,1.802052557E-2
7.949357484E0,5.413793400E-2,3.665191308E-2,1.496619824E-2
7.959357484E0,2.970332280E-2,4.459316283E-2,1.191187184E-2
7.969357484E0,1.382082608E-2,3.726277873E-2,1.130100712E-2
7.979357484E0,-8.170322515E-3,2.993239649E-2,1.252273750E-2
7.989357484E0,-2.344195358E-2,2.932153270E-2,1.374446787E-2
7.999357184E0,-2.893974073E-2,3.115412779E-2,1.496619824E-2
8.009357184E0,-3.443752974E-2,3.909537569E-2,1.313360315E-2
8.019357184E0,-3.199406713E-2,4.459316283E-2,1.618792862E-2
8.029357184E0,-3.810271993E-2,4.398229718E-2,1.985312067E-2
8.039357184E0,-3.810271993E-2,4.031710699E-2,2.168571576E-2
8.049357184E0,-3.138320148E-2,3.420845419E-2,2.229658142E-2
8.059357450E0,-2.527454868E-2,2.199114859E-2,1.985312067E-2
8.069357450E0,-1.488984004E-2,1.221730467E-2,1.740965992E-2
8.079357183E0,-1.122464892E-2,4.276056774E-3,1.069014147E-2
8.089357183E0,-1.061378326E-2,-3.665191587E-3,5.803219974E-3
8.099357183E0,-1.061378326E-2,-1.221730467E-2,3.359758761E-3
8.109356916E0,-6.337726954E-3,-1.832595654E-2,2.138028387E-3
8.119356916E0,6.490443368E-3,-2.015855350E-2,3.054326226E-4
8.129356916E0,2.725986205E-2,-1.527163107E-2,-2.748893574E-3
8.139356916E0,4.802928120E-2,-9.162978269E-3,-5.192354787E-3
8.149356916E0,6.452263892E-2,-2.443460980E-3,-3.970623948E-3
8.159356916E0,6.940956414E-2,9.162978269E-3,-3.359758761E-3
8.169356916E0,6.879869848E-2,1.954768784E-2,-4.581489135E-3
8.179356916E0,6.024658307E-2,2.382374369E-2,-5.192354787E-3
8.189356916E0,4.864014685E-2,2.687807009E-2,-5.803219974E-3
8.199357216E0,4.314235970E-2,2.260201424E-2,-7.635815535E-3
8.209357216E0,4.436408728E-2,2.138028294E-2,-8.857546374E-3
8.219357216E0,4.130976275E-2,2.321287990E-2,-8.857546374E-3
8.229357216E0,2.176207490E-2,3.604105115E-2,-9.468411095E-3
8.239357216E0,2.825251780E-3,4.642575979E-2,-5.803219974E-3
8.249356949E0,-8.781188168E-3,4.764748737E-2,-3.359758761E-3
8.259356949E0,-1.366810966E-2,4.459316283E-2,-2.748893574E-3
8.269356949E0,-1.611157134E-2,3.543018550E-2,-2.138028387E-3
8.279356949E0,-1.427897532E-2,2.748893574E-2,-2.748893574E-3
8.289356949E0,-1.244637929E-2,2.076941915E-2,-3.359758761E-3
8.299356949E0,-1.611157134E-2,1.404990070E-2,-5.803219974E-3
8.309357215E0,-1.977676153E-2,5.497787148E-3,-5.192354787E-3
8.319357215E0,-1.855503209E-2,-4.276056774E-3,-4.581489135E-3
8.329357215E0,-1.244637929E-2,-1.221730467E-2,-9.162978968E-4
8.339357215E0,-4.505131394E-3,-1.710422710E-2,1.527163084E-3
8.349357215E0,-2.290744742E-4,-2.321287990E-2,5.803219974E-3
8.359356948E0,-1.450804994E-3,-2.565634064E-2,6.414085161E-3
8.369356948E0,-8.781188168E-3,-3.054326214E-2,5.192354787E-3
8.379356948E0,-1.427897532E-2,-3.420845419E-2,3.970623948E-3
8.389356948E0,-1.672243699E-2,-3.543018550E-2,1.527163084E-3
8.399356948E0,-1.122464892E-2,-3.970624134E-2,3.970623948E-3
8.409356948E0,-8.170322515E-3,-4.214970022E-2,5.803219974E-3
8.419356948E0,-3.894265974E-3,-4.337143153E-2,6.414085161E-3
8.429356948E0,-2.061670180E-3,-3.543018550E-2,6.414085161E-3
8.439356948E0,-1.450804994E-3,-2.993239649E-2,8.857546374E-3
8.449357214E0,-4.505131394E-3,-9.162978269E-3,8.246680722E-3
8.459357214E0,-7.559457328E-3,5.497787148E-3,6.414085161E-3
8.469357214E0,-1.122464892E-2,1.160643995E-2,6.414085161E-3
8.479357214E0,-1.122464892E-2,9.162978269E-3,5.803219974E-3
8.489357214E0,-2.099849284E-2,1.221730467E-2,3.970623948E-3
8.499356914E0,-2.771801129E-2,1.466076635E-2,1.527163084E-3
8.509356914E0,-2.588541433E-2,1.099557430E-2,-3.054326226E-4
8.519356914E0,-2.832887508E-2,1.160643995E-2,-1.527163084E-3
8.529356914E0,-1.855503209E-2,1.160643995E-2,-2.138028387E-3
8.539356914E0,-1.794416644E-2,2.138028294E-2,-2.748893574E-3
8.549356914E0,-8.170322515E-3,2.504547499E-2,-3.970623948E-3
8.559357180E0,-3.283400787E-3,3.054326214E-2,-5.192354787E-3
8.569357180E0,9.926559869E-4,3.176499158E-2,-7.024950348E-3
8.579357180E0,2.825251780E-3,3.054326214E-2,-5.192354787E-3
8.589357180E0,2.825251780E-3,3.176499158E-2,-3.359758761E-3
8.599357180E0,7.712173741E-3,2.871066704E-2,-3.359758761E-3
8.609356913E0,5.268712528E-3,2.443460934E-2,-3.359758761E-3
8.619356913E0,1.443169173E-2,1.282817032E-2,-1.527163084E-3
8.629356913E0,2.542726509E-2,5.497787148E-3,-2.138028387E-3
8.639356913E0,2.787072770E-2,1.832595794E-3,-1.527163084E-3
8.649356913E0,1.931861416E-2,6.719517522E-3,-1.527163084E-3
8.659356913E0,1.809688285E-2,4.886921961E-3,-9.162978968E-4
8.669356913E0,8.933904581E-3,9.773843922E-3,3.054326226E-4
8.679356913E0,1.137736533E-2,7.941247895E-3,1.527163084E-3
8.689356913E0,4.657847341E-3,7.330383174E-3,3.359758761E-3
8.699357213E0,3.436116967E-3,4.276056774E-3,6.414085161E-3
8.709357213E0,2.214386594E-3,4.276056774E-3,6.414085161E-3
8.719357213E0,-3.283400787E-3,6.108652335E-3,1.069014147E-2
8.729357213E0,-1.488984004E-2,9.773843922E-3,1.313360315E-2
8.739357213E0,-4.505131394E-3,4.886921961E-3,1.374446787E-2
8.749356946E0,8.323038928E-3,-3.054326167E-3,1.130100712E-2
8.759356946E0,1.504255645E-2,-7.941247895E-3,8.857546374E-3
8.769356946E0,1.565342210E-2,-1.832595794E-3,7.635815535E-3
8.779356946E0,1.259909570E-2,4.886921961E-3,5.192354787E-3
8.789356946E0,9.926559869E-4,1.527163107E-2,2.138028387E-3
8.799356946E0,-6.948592141E-3,2.138028294E-2,2.748893574E-3
8.809357212E0,-1.122464892E-2,2.443460934E-2,2.138028387E-3
8.819357478E0,-1.427897532E-2,2.199114859E-2,2.138028387E-3
8.829357478E0,-2.061670180E-3,1.038470957E-2,3.359758761E-3
8.839357478E0,3.436116967E-3,7.330383174E-3,2.748893574E-3
8.849357478E0,1.320996135E-2,6.108652451E-4,3.970623948E-3
8.859357211E0,2.603813075E-2,-1.038470957E-2,2.748893574E-3
8.869357211E0,2.420553565E-2,-9.162978269E-3,1.527163084E-3
8.879357211E0,1.992947794E-2,-3.665191587E-3,3.054326226E-4
8.889357211E0,2.115120925E-2,1.832595794E-3,1.527163084E-3
8.899357211E0,1.992947794E-2,1.099557430E-2,1.527163084E-3
8.909357211E0,1.198823005E-2,2.076941915E-2,3.054326226E-4
8.919357211E0,2.825251780E-3,2.871066704E-2,-3.054326226E-4
8.929357211E0,-8.170322515E-3,2.993239649E-2,3.054326226E-4
8.939357211E0,-1.733330078E-2,2.932153270E-2,2.748893574E-3
8.949357511E0,-2.405281924E-2,2.382374369E-2,4.581489135E-3
8.959357511E0,-1.672243699E-2,1.282817032E-2,4.581489135E-3
8.969357511E0,-1.916589774E-2,9.162978269E-3,2.748893574E-3
8.979357511E0,-5.726861767E-3,4.886921961E-3,9.162978968E-4
8.989357511E0,-3.283400787E-3,4.276056774E-3,3.970623948E-3
8.999357211E0,3.817907709E-4,1.038470957E-2,2.138028387E-3
9.009357211E0,-2.061670180E-3,1.710422710E-2,-1.527163084E-3
9.019357211E0,-7.559457328E-3,2.687807009E-2,-1.527163084E-3
9.029357211E0,-1.488984004E-2,2.809980139E-2,-3.359758761E-3
9.039357211E0,-1.672243699E-2,2.565634064E-2,-2.138028387E-3
9.049357211E0,-1.244637929E-2,1.527163107E-2,-3.970623948E-3
9.059357477E0,-1.183551457E-2,4.276056774E-3,-6.414085161E-3
9.069357477E0,-5.726861767E-3,-4.276056774E-3,-8.857546374E-3
9.079357477E0,4.657847341E-3,-1.160643995E-2,-8.246680722E-3
9.089357477E0,7.712173741E-3,-9.773843922E-3,-8.857546374E-3
9.099357477E0,1.320996135E-2,-9.162978269E-3,-6.414085161E-3
9.109357210E0,6.490443368E-3,-7.330383174E-3,-7.024950348E-3
9.119356943E0,5.268712528E-3,-5.497787148E-3,-3.359758761E-3
9.129356943E0,-2.290744742E-4,-3.054326167E-3,-9.162978968E-4
9.139356943E0,-1.450804994E-3,-1.038470957E-2,-1.527163084E-3
9.149356943E0,-3.283400787E-3,-4.276056774E-3,-2.748893574E-3
9.159356943E0,-8.399396902E-4,-1.038470957E-2,-2.748893574E-3
9.169356943E0,6.490443368E-3,-1.099557430E-2,-3.970623948E-3
9.179356943E0,8.323038928E-3,-1.160643995E-2,-4.581489135E-3
9.189356943E0,8.323038928E-3,-5.497787148E-3,-5.803219974E-3
9.199357243E0,6.490443368E-3,1.221730490E-3,-4.581489135E-3
9.209357243E0,-7.559457328E-3,8.552113548E-3,-3.359758761E-3
9.219357243E0,-1.427897532E-2,1.404990070E-2,-1.527163084E-3
9.229357243E0,-2.038762718E-2,1.527163107E-2,-2.748893574E-3
9.239357243E0,-1.183551457E-2,1.160643995E-2,-1.527163084E-3
9.249356943E0,-9.392052889E-3,1.343903504E-2,-1.527163084E-3
9.259356943E0,-1.061378326E-2,1.649336144E-2,-3.970623948E-3
9.269356943E0,-1.305724494E-2,9.162978269E-3,-3.970623948E-3
9.279357209E0,-1.611157134E-2,9.773843922E-3,-5.192354787E-3
9.289357209E0,-2.588541433E-2,1.404990070E-2,-7.635815535E-3
9.299357209E0,-3.443752974E-2,1.527163107E-2,-6.414085161E-3
9.309357475E0,-5.215261877E-2,1.649336144E-2,-3.359758761E-3
9.319357475E0,-6.498079002E-2,1.588249579E-2,9.162978968E-4
9.329357475E0,-7.414376736E-2,1.710422710E-2,4.581489135E-3
9.339357475E0,-7.780896127E-2,2.076941915E-2,8.857546374E-3
9.349357475E0,-7.353290170E-2,2.260201424E-2,1.374446787E-2
9.359357208E0,-8.330674469E-2,3.726277873E-2,1.618792862E-2
9.369357208E0,-8.697193861E-2,4.153883830E-2,2.107485011E-2
9.379357208E0,-9.735664725E-2,4.764748737E-2,2.474004216E-2
9.389357208E0,-1.083522215E-1,5.742133409E-2,2.840523422E-2
9.399357208E0,-1.230129898E-1,6.536258012E-2,3.023782931E-2
9.409357208E0,-1.248455867E-1,6.108652428E-2,3.268129006E-2
9.419357208E0,-1.230129898E-1,4.948008433E-2,3.145955876E-2
9.429357208E0,-1.199586615E-1,3.848451003E-2,2.840523422E-2
9.439357208E0,-1.156826094E-1,3.237585723E-2,2.351831272E-2
9.449357474E0,-1.126282811E-1,3.359758854E-2,1.618792862E-2
9.459357474E0,-1.211803928E-1,4.398229718E-2,1.069014147E-2
9.469357474E0,-1.266781837E-1,4.764748737E-2,8.246680722E-3
9.479357474E0,-1.272890419E-1,5.253441259E-2,8.246680722E-3
9.489357474E0,-1.431715488E-1,7.147123665E-2,1.007927675E-2
9.499357174E0,-1.553888470E-1,9.285151958E-2,1.374446787E-2
9.509357174E0,-1.633300930E-1,1.020144969E-1,1.618792862E-2
9.519357174E0,-1.669952869E-1,9.590584040E-2,1.740965992E-2
9.529357174E0,-1.706604809E-1,7.452555746E-2,2.290744707E-2
9.539357174E0,-1.724930704E-1,4.825835302E-2,2.412917651E-2
9.549357174E0,-1.840995103E-1,3.604105115E-2,2.351831272E-2
9.559357440E0,-1.969276816E-1,4.031710699E-2,2.229658142E-2
9.569357440E0,-2.146427780E-1,5.192354694E-2,2.046398632E-2
9.579357173E0,-2.244166136E-1,6.536258012E-2,1.679879427E-2
9.589357173E0,-2.323578745E-1,7.819075137E-2,1.130100712E-2
9.599357173E0,-2.323578745E-1,9.224065393E-2,4.581489135E-3
9.609356906E0,-2.158645093E-1,8.613199741E-2,-2.748893574E-3
9.619356906E0,-1.963168234E-1,5.986479297E-2,-2.748893574E-3
9.629356906E0,-1.651626974E-1,2.932153270E-2,-2.748893574E-3
9.639356906E0,-1.450041384E-1,8.552113548E-3,-4.581489135E-3
9.649356906E0,-1.315651089E-1,-1.832595654E-2,-1.527163084E-3
9.659356906E0,-1.205695271E-1,-4.886921868E-2,-9.162978968E-4
9.669356906E0,-1.242347211E-1,-7.086037099E-2,5.803219974E-3
9.679356906E0,-1.309542358E-1,-9.101892263E-2,1.191187184E-2
9.689356906E0,-1.303433776E-1,-1.123992056E-1,1.496619824E-2
9.699357172E0,-1.248455867E-1,-1.392772794E-1,1.802052557E-2
9.709357172E0,-1.175151989E-1,-1.545489132E-1,2.168571576E-2
9.719357172E0,-1.071304902E-1,-1.728748679E-1,2.412917651E-2
9.729357172E0,-9.674578160E-2,-1.808161139E-1,1.863138936E-2
9.739357172E0,-9.185886383E-2,-1.979203373E-1,1.252273750E-2
9.749356905E0,-1.010218412E-1,-2.290744632E-1,7.024950348E-3
9.759356905E0,-1.187369302E-1,-2.864958048E-1,2.748893574E-3
9.769356905E0,-1.309542358E-1,-3.567453027E-1,-4.581489135E-3
9.779356905E0,-1.248455867E-1,-4.172209501E-1,-1.557706390E-2
9.789356905E0,-1.224021241E-1,-4.630358517E-1,-2.840523422E-2
9.799356905E0,-1.297325045E-1,-4.691445231E-1,-3.817907721E-2
9.809357171E0,-7.536549866E-2,-3.952298164E-1,-5.833763257E-2
9.819357171E0,-3.504839167E-2,-3.365867436E-1,-5.100724846E-2
9.829357171E0,2.298380435E-2,-2.712241709E-1,-3.634648025E-2
9.839357171E0,1.060614809E-1,-2.046398520E-1,-3.023782931E-2
9.849357171E0,1.891391575E-1,-1.551597714E-1,-2.718350291E-2
9.859356904E0,2.490039468E-1,-1.441642046E-1,-1.924225502E-2
9.869356904E0,2.807689309E-1,-1.246165112E-1,-2.840523422E-2
9.879356904E0,2.703842223E-1,-1.301143020E-1,-3.023782931E-2
9.889356904E0,2.111303061E-1,-1.643227488E-1,-1.618792862E-2
9.899356904E0,1.188896447E-1,-1.514945775E-1,-8.246680722E-3
9.909356904E0,3.459024429E-2,-1.020144969E-1,9.162978968E-4
9.919356904E0,-3.382666409E-2,-2.748893574E-2,3.359758761E-3
9.929356904E0,-9.552405030E-2,6.963863969E-2,1.191187184E-2
9.939356904E0,-1.358411610E-1,1.679879427E-1,2.412917651E-2
9.949357170E0,-1.657735556E-1,2.571742535E-1,4.306599870E-2
9.959357170E0,-1.700496078E-1,3.255911767E-1,5.894849449E-2
9.969357170E0,-1.676061451E-1,3.652974069E-1,6.750060618E-2
9.979357170E0,-1.578323096E-1,3.628539443E-1,6.688974798E-2
9.989357170E0,-1.633300930E-1,3.402519524E-1,5.894849449E-2
9.999356903E0,-1.786017269E-1,3.188716471E-1,4.795292020E-2
1.000935690E1,-2.005928755E-1,3.170390725E-1,3.573561832E-2
1.001935690E1,-2.164753675E-1,3.225368559E-1,2.229658142E-2
1.002935690E1,-2.360230535E-1,3.457497358E-1,1.130100712E-2
1.003935690E1,-2.500729561E-1,3.781255782E-1,3.359758761E-3
1.004935690E1,-2.598468065E-1,4.043927789E-1,4.581489135E-3
1.005935717E1,-2.531272769E-1,4.068362415E-1,1.007927675E-2
1.006935717E1,-2.396882474E-1,3.970624208E-1,2.046398632E-2
1.007935717E1,-2.158645093E-1,3.732386529E-1,3.634648025E-2
1.008935717E1,-1.840995103E-1,3.298672438E-1,5.222897977E-2
1.009935717E1,-1.511127949E-1,2.767219543E-1,6.811147183E-2
1.010935690E1,-1.285107732E-1,2.101376504E-1,8.704829961E-2
1.011935690E1,-1.016327068E-1,1.368338168E-1,1.004873365E-1
1.012935690E1,-8.086328954E-2,6.597344577E-2,1.084285825E-1
1.013935690E1,-6.864598393E-2,-1.221730490E-3,1.157589629E-1
1.014935690E1,-6.986771524E-2,-6.352998316E-2,1.194241568E-1
1.015935690E1,-8.880453557E-2,-1.362229437E-1,1.127046347E-1
1.016935690E1,-9.430231899E-2,-1.783726513E-1,1.035416573E-1
1.017935690E1,-9.552405030E-2,-2.107485086E-1,8.582656831E-2
1.018935690E1,-1.016327068E-1,-2.180788964E-1,7.055493444E-2
1.019935717E1,-9.369145334E-2,-2.144137025E-1,5.467243865E-2
1.020935717E1,-7.536549866E-2,-2.101376504E-1,4.550946131E-2
1.021935717E1,-5.703954399E-2,-2.009746730E-1,3.817907721E-2
1.022935717E1,-3.565925732E-2,-1.930334121E-1,3.756821156E-2
1.023935717E1,-2.405281924E-2,-2.113593817E-1,4.367686436E-2
1.024935690E1,-1.855503209E-2,-2.474004179E-1,5.772676691E-2
1.025935690E1,-1.611157134E-2,-2.779437006E-1,6.444628537E-2
1.026935690E1,-2.038762718E-2,-3.036000133E-1,6.994406879E-2
1.027935690E1,-3.260493279E-2,-3.225368559E-1,6.444628537E-2
1.028935690E1,-6.070473418E-2,-3.152064681E-1,5.161811411E-2
1.029935690E1,-8.330674469E-2,-2.767219543E-1,4.245513305E-2
1.030935717E1,-1.059087589E-1,-2.193006277E-1,3.023782931E-2
1.031935717E1,-1.260673106E-1,-1.478293836E-1,1.802052557E-2
1.032935717E1,-1.340085566E-1,-8.429940045E-2,7.635815535E-3
1.033935717E1,-1.285107732E-1,-4.825835302E-2,1.374446787E-2
1.034935717E1,-1.144608781E-1,-4.214970022E-2,2.168571576E-2
1.035935690E1,-9.918924421E-2,-6.169738993E-2,3.329215571E-2
1.036935690E1,-7.841982692E-2,-9.896016866E-2,4.062253982E-2
1.037935690E1,-5.887213722E-2,-1.374446750E-1,4.123340547E-2
1.038935717E1,-3.443752974E-2,-1.747074574E-1,3.817907721E-2
1.039935717E1,-2.038762718E-2,-2.058615834E-1,2.962696366E-2
1.040935717E1,-1.183551457E-2,-2.205223590E-1,1.496619824E-2
1.041935717E1,-8.781188168E-3,-2.193006277E-1,9.162978968E-4
1.042935717E1,-1.122464892E-2,-2.138028294E-1,-1.069014147E-2
1.043935717E1,-1.672243699E-2,-2.076941878E-1,-1.802052557E-2
1.044935743E1,-2.160935849E-2,-2.040289938E-1,-2.107485011E-2
1.045935743E1,-2.099849284E-2,-2.095267773E-1,-2.046398632E-2
1.046935743E1,-2.527454868E-2,-2.138028294E-1,-1.679879427E-2
1.047935743E1,-3.321579844E-2,-2.174680233E-1,-1.191187184E-2
1.048935743E1,-4.421137273E-2,-2.223549485E-1,-5.192354787E-3
1.049935717E1,-4.970915988E-2,-2.266310006E-1,2.138028387E-3
1.050935716E1,-3.749185428E-2,-2.284636050E-1,1.374446787E-2
1.051935716E1,-8.399396902E-4,-2.321287990E-1,3.390302137E-2
1.052935716E1,3.031418845E-2,-2.333505303E-1,4.550946131E-2
1.053935716E1,6.391177326E-2,-2.217440903E-1,4.856378585E-2
1.054935716E1,9.567677230E-2,-2.034181207E-1,4.062253982E-2
1.055935743E1,1.115592644E-1,-1.899790913E-1,2.535090782E-2
1.056935743E1,1.201113760E-1,-1.912008226E-1,1.130100712E-2
1.057935743E1,1.182787865E-1,-1.832595766E-1,-6.414085161E-3
1.058935743E1,1.146135926E-1,-1.624901593E-1,-2.290744707E-2
1.059935743E1,1.127809957E-1,-1.246165112E-1,-3.573561832E-2
1.060935716E1,1.140027270E-1,-8.552113175E-2,-3.940080851E-2
1.061935716E1,1.323286891E-1,-5.375614017E-2,-3.756821156E-2
1.062935716E1,1.616502106E-1,-3.176499158E-2,-2.840523422E-2
1.063935716E1,1.952477992E-1,-2.565634064E-2,-2.168571576E-2
1.064935716E1,2.172389477E-1,-6.108652335E-3,-3.023782931E-2
1.065935716E1,2.166280895E-1,3.726277873E-2,-4.734205827E-2
1.066935716E1,2.031890452E-1,9.590584040E-2,-6.078109145E-2
1.067935716E1,1.799761802E-1,1.655444801E-1,-7.727445662E-2
1.068935690E1,1.585958898E-1,2.125810981E-1,-8.704829961E-2
1.069935716E1,1.433242559E-1,2.467895597E-1,-9.743300825E-2
1.070935716E1,1.414916664E-1,2.602286041E-1,-1.029307917E-1
1.071935716E1,1.640936732E-1,2.486221492E-1,-1.047633886E-1
1.072935716E1,2.325105816E-1,1.997529417E-1,-1.133155003E-1
1.073935716E1,2.960405648E-1,1.631010175E-1,-1.206458881E-1
1.074935690E1,3.235295117E-1,1.172861308E-1,-1.151480973E-1
1.075935690E1,3.528510332E-1,8.185594529E-2,-1.041525230E-1
1.076935690E1,3.455206454E-1,3.909537569E-2,-7.666359097E-2
1.077935690E1,3.308598995E-1,-9.162978269E-3,-4.795292020E-2
1.078935690E1,3.265838325E-1,-4.825835302E-2,-3.207042441E-2
1.079935690E1,3.412446082E-1,-7.819075137E-2,-2.901609987E-2
1.080935716E1,3.412446082E-1,-8.429940045E-2,-3.634648025E-2
1.081935716E1,3.388011456E-1,-8.185594529E-2,-4.001167417E-2
1.082935716E1,3.314707577E-1,-7.757988572E-2,-3.878994286E-2
1.083935716E1,3.229186535E-1,-7.391469181E-2,-4.123340547E-2
1.084935716E1,3.107013404E-1,-6.780604273E-2,-4.489859566E-2
1.085935690E1,2.948188484E-1,-5.314527452E-2,-5.894849449E-2
1.086935690E1,2.636647224E-1,6.108652335E-3,-7.422012836E-2
1.087935690E1,2.276236564E-1,6.719517708E-2,-7.666359097E-2
1.088935690E1,1.695914567E-1,1.398881376E-1,-8.155050874E-2
1.089935690E1,1.103375331E-1,2.125810981E-1,-8.827003092E-2
1.090935690E1,7.307475805E-2,2.614503205E-1,-9.254608303E-2
1.091935690E1,5.719225854E-2,2.785545588E-1,-9.376781434E-2
1.092935690E1,4.314235970E-2,2.816088796E-1,-8.949175477E-2
1.093935690E1,1.626428775E-2,2.767219543E-1,-7.971791178E-2
1.094935716E1,-1.611157134E-2,2.571742535E-1,-6.933320314E-2
1.095935716E1,-4.176791012E-2,2.315179259E-1,-6.139195710E-2
1.096935716E1,-5.703954399E-2,2.131919712E-1,-5.589416996E-2
1.097935716E1,-5.459608138E-2,2.009746730E-1,-6.017022580E-2
1.098935716E1,-3.749185428E-2,1.887573600E-1,-6.872233748E-2
1.099935689E1,-7.559457328E-3,1.722639948E-1,-7.666359097E-2
1.100935689E1,3.275764734E-2,1.582140923E-1,-7.971791178E-2
1.101935689E1,7.002042979E-2,1.594358236E-1,-8.277224004E-2
1.102935689E1,9.567677230E-2,1.685988009E-1,-8.765916526E-2
1.103935689E1,1.030071527E-1,1.802052408E-1,-8.888089657E-2
1.104935689E1,9.995282441E-2,1.820378453E-1,-8.460483700E-2
1.105935716E1,8.712465316E-2,1.710422635E-1,-7.483099401E-2
1.106935716E1,7.124216110E-2,1.466076523E-1,-6.200282276E-2
1.107935716E1,5.413793400E-2,1.093448773E-1,-5.100724846E-2
1.108935716E1,3.520110995E-2,7.452555746E-2,-3.940080851E-2
1.109935716E1,1.809688285E-2,4.092797264E-2,-3.145955876E-2
1.110935689E1,-3.894265974E-3,1.893682219E-2,-2.535090782E-2
1.111935689E1,-3.382666409E-2,4.276056774E-3,-2.351831272E-2
1.112935689E1,-5.948300287E-2,-7.941247895E-3,-2.351831272E-2
1.113935689E1,-8.575020730E-2,-1.893682219E-2,-2.596177347E-2
1.114935689E1,-9.369145334E-2,-2.993239649E-2,-3.145955876E-2
1.115935689E1,-9.796751291E-2,-4.214970022E-2,-3.451388702E-2
1.116935689E1,-8.025242388E-2,-6.291911751E-2,-3.756821156E-2
1.117935689E1,-6.681338698E-2,-8.491026610E-2,-3.756821156E-2
1.118935689E1,-4.360050708E-2,-1.062905490E-1,-3.695734590E-2
1.119935716E1,-1.427897532E-2,-1.258382350E-1,-3.329215571E-2
1.120935716E1,8.323038928E-3,-1.374446750E-1,-3.451388702E-2
1.121935716E1,2.970332280E-2,-1.441642046E-1,-3.451388702E-2
1.122935716E1,3.459024429E-2,-1.563815027E-1,-2.718350291E-2
1.123935716E1,3.886630014E-2,-1.753183305E-1,-2.901609987E-2
1.124935689E1,3.214678168E-2,-1.930334121E-1,-2.596177347E-2
1.125935689E1,3.703370690E-2,-2.058615834E-1,-2.290744707E-2
1.126935689E1,4.375322163E-2,-2.156354338E-1,-1.618792862E-2
1.127935689E1,4.130976275E-2,-2.217440903E-1,-1.069014147E-2
1.128935689E1,3.642284125E-2,-2.260201424E-1,-6.414085161E-3
1.129935689E1,3.336851299E-2,-2.296853364E-1,-2.138028387E-3
1.130935716E1,3.336851299E-2,-2.327396572E-1,1.527163084E-3
1.131935716E1,3.520110995E-2,-2.260201424E-1,3.359758761E-3
1.132935716E1,3.764457256E-2,-2.076941878E-1,4.581489135E-3
1.133935716E1,3.459024429E-2,-1.838704348E-1,5.803219974E-3
1.134935716E1,2.725986205E-2,-1.576032341E-1,3.359758761E-3
1.135935689E1,1.809688285E-2,-1.270599663E-1,2.138028387E-3
1.136935689E1,1.626428775E-2,-1.020144969E-1,-4.581489135E-3
1.137935689E1,2.176207490E-2,-8.185594529E-2,-1.069014147E-2
1.138935689E1,2.298380435E-2,-6.475171447E-2,-1.252273750E-2
1.139935689E1,2.237293869E-2,-4.825835302E-2,-1.557706390E-2
1.140935689E1,2.054034360E-2,-3.176499158E-2,-1.435533352E-2
1.141935689E1,3.031418845E-2,-2.321287990E-2,-1.374446787E-2
1.142935689E1,2.970332280E-2,-1.343903504E-2,-1.069014147E-2
1.143935689E1,2.970332280E-2,-4.886921961E-3,-6.414085161E-3
1.144935716E1,3.520110995E-2,-2.443460980E-3,-4.581489135E-3
1.145935716E1,3.275764734E-2,4.886921961E-3,-5.192354787E-3
1.146935716E1,4.558581859E-2,4.276056774E-3,-5.803219974E-3
1.147935716E1,5.169447139E-2,1.038470957E-2,-7.024950348E-3
1.148935716E1,5.780312419E-2,1.160643995E-2,-1.191187184E-2
1.149935689E1,6.085744873E-2,1.527163107E-2,-1.435533352E-2
1.150935689E1,6.146831438E-2,1.588249579E-2,-1.679879427E-2
1.151935689E1,6.696610153E-2,1.771509275E-2,-1.985312067E-2
1.152935689E1,7.246389240E-2,2.382374369E-2,-2.351831272E-2
1.153935689E1,6.940956414E-2,3.359758854E-2,-2.535090782E-2
1.154935689E1,6.757696718E-2,3.604105115E-2,-2.474004216E-2
1.155935692E1,6.452263892E-2,3.604105115E-2,-2.168571576E-2
1.156935692E1,6.207918003E-2,2.809980139E-2,-1.374446787E-2
1.157935692E1,6.391177326E-2,1.160643995E-2,-3.970623948E-3
1.158935692E1,7.307475805E-2,6.719517522E-3,-2.748893574E-3
1.159935692E1,7.429648191E-2,1.343903504E-2,-9.162978968E-4
1.160935666E1,7.673994452E-2,1.771509275E-2,3.054326226E-4
1.161935666E1,7.551821321E-2,1.893682219E-2,2.748893574E-3
1.162935666E1,6.207918003E-2,2.321287990E-2,4.581489135E-3
1.163935666E1,5.658139288E-2,2.932153270E-2,4.581489135E-3
1.164935666E1,5.291620269E-2,3.604105115E-2,3.970623948E-3
1.165935666E1,5.474879593E-2,4.581489414E-2,1.527163084E-3
1.166935666E1,5.047274008E-2,5.314527452E-2,-9.162978968E-4
1.167935666E1,6.269004941E-2,5.497787148E-2,-7.635815535E-3
1.168935666E1,5.963572115E-2,5.742133409E-2,-1.130100712E-2
1.169935692E1,6.879869848E-2,5.497787148E-2,-1.374446787E-2
1.170935692E1,8.284860104E-2,5.131268129E-2,-1.740965992E-2
1.171935692E1,8.162686974E-2,5.681046844E-2,-1.924225502E-2
1.172935692E1,8.590292186E-2,6.169738993E-2,-2.474004216E-2
1.173935692E1,7.796167582E-2,7.391469181E-2,-2.657263726E-2
1.174935666E1,7.246389240E-2,8.429940045E-2,-2.779436857E-2
1.175935666E1,6.330090761E-2,9.346238524E-2,-2.779436857E-2
1.176935666E1,5.474879593E-2,9.834930301E-2,-2.596177347E-2
1.177935666E1,4.069889709E-2,1.007927656E-1,-2.412917651E-2
1.178935666E1,2.970332280E-2,1.014036313E-1,-1.985312067E-2
1.179935666E1,1.931861416E-2,9.590584040E-2,-1.496619824E-2
1.180935692E1,1.259909570E-2,9.224065393E-2,-7.024950348E-3
1.181935692E1,9.544769302E-3,9.162978828E-2,-3.359758761E-3
1.182935692E1,2.214386594E-3,9.590584040E-2,9.162978968E-4
1.183935692E1,-3.894265974E-3,9.896016866E-2,2.748893574E-3
1.184935692E1,-5.115996581E-3,9.712757170E-2,5.803219974E-3
1.185935689E1,-8.781188168E-3,9.651670605E-2,1.191187184E-2
1.186935689E1,-6.948592141E-3,9.040805697E-2,1.496619824E-2
1.187935689E1,-3.894265974E-3,8.491026610E-2,1.985312067E-2
1.188935689E1,4.657847341E-3,8.185594529E-2,1.924225502E-2
1.189935689E1,4.046982154E-3,8.735372871E-2,2.046398632E-2
1.190935689E1,1.565342210E-2,8.674286306E-2,2.107485011E-2
1.191935715E1,2.237293869E-2,8.613199741E-2,1.924225502E-2
1.192935715E1,2.909245715E-2,7.819075137E-2,1.679879427E-2
1.193935715E1,3.947716579E-2,6.963863969E-2,1.191187184E-2
1.194935742E1,4.436408728E-2,6.475171447E-2,1.130100712E-2
1.195935742E1,5.169447139E-2,6.414084882E-2,1.007927675E-2
1.196935742E1,6.207918003E-2,6.047565863E-2,5.803219974E-3
1.197935742E1,5.902485549E-2,6.536258012E-2,3.970623948E-3
1.198935742E1,4.864014685E-2,6.963863969E-2,2.138028387E-3
1.199935715E1,5.291620269E-2,7.024950534E-2,-3.054326226E-4
1.200935715E1,4.314235970E-2,7.696902007E-2,-5.192354787E-3
1.201935715E1,3.703370690E-2,8.063421398E-2,-5.192354787E-3
1.202935715E1,3.581197560E-2,8.185594529E-2,-8.246680722E-3
1.203935715E1,3.825543448E-2,8.429940045E-2,-7.635815535E-3
1.204935715E1,4.069889709E-2,8.246681094E-2,-1.007927675E-2
1.205935742E1,4.130976275E-2,8.368854225E-2,-1.191187184E-2
1.206935742E1,4.436408728E-2,8.552113175E-2,-1.374446787E-2
1.207935742E1,3.947716579E-2,8.674286306E-2,-1.679879427E-2
1.208935742E1,2.725986205E-2,9.162978828E-2,-1.618792862E-2
1.209935742E1,3.275764734E-2,8.552113175E-2,-1.496619824E-2
1.210935715E1,2.542726509E-2,8.002334833E-2,-1.007927675E-2
1.211935715E1,1.748601720E-2,7.086037099E-2,-5.192354787E-3
1.212935715E1,1.137736533E-2,5.803219974E-2,-9.162978968E-4
1.213935715E1,5.879578181E-3,4.764748737E-2,2.748893574E-3
1.214935715E1,-4.505131394E-3,3.909537569E-2,5.803219974E-3
1.215935715E1,-1.061378326E-2,3.237585723E-2,8.246680722E-3
1.216935715E1,-1.855503209E-2,2.809980139E-2,1.069014147E-2
1.217935715E1,-2.649627998E-2,2.748893574E-2,1.007927675E-2
1.218935715E1,-3.504839167E-2,2.565634064E-2,1.069014147E-2
1.219935745E1,-4.482223839E-2,2.076941915E-2,1.130100712E-2
1.220935745E1,-4.604396969E-2,1.160643995E-2,1.130100712E-2
1.221935718E1,-3.565925732E-2,-2.443460980E-3,1.374446787E-2
1.222935718E1,-2.099849284E-2,-1.588249579E-2,1.252273750E-2
1.223935718E1,-2.061670180E-3,-2.932153270E-2,8.246680722E-3
1.224935692E1,5.879578181E-3,-2.993239649E-2,7.635815535E-3
1.225935692E1,1.626428775E-2,-2.871066704E-2,3.359758761E-3
1.226935692E1,2.420553565E-2,-1.832595654E-2,-9.162978968E-4
1.227935692E1,2.603813075E-2,-7.330383174E-3,-6.414085161E-3
1.228935692E1,2.664899640E-2,-6.108652451E-4,-7.024950348E-3
1.229935692E1,2.420553565E-2,3.054326167E-3,-1.007927675E-2
1.230935718E1,2.420553565E-2,8.552113548E-3,-1.313360315E-2
1.231935718E1,2.481640130E-2,6.108652335E-3,-1.740965992E-2
1.232935718E1,3.092505224E-2,3.665191587E-3,-2.107485011E-2
1.233935718E1,3.764457256E-2,3.665191587E-3,-2.474004216E-2
1.234935718E1,4.558581859E-2,5.497787148E-3,-2.718350291E-2
1.235935692E1,4.925100878E-2,1.160643995E-2,-2.840523422E-2
1.236935692E1,4.802928120E-2,2.260201424E-2,-2.718350291E-2
1.237935692E1,3.825543448E-2,3.909537569E-2,-2.840523422E-2
1.238935692E1,3.214678168E-2,4.703662544E-2,-2.718350291E-2
1.239935692E1,1.809688285E-2,5.131268129E-2,-2.412917651E-2
1.240935692E1,1.137736533E-2,4.764748737E-2,-2.107485011E-2
1.241935692E1,-2.061670180E-3,4.214970022E-2,-1.985312067E-2
1.242935692E1,-3.894265974E-3,3.298672289E-2,-1.924225502E-2
1.243935692E1,-7.559457328E-3,2.809980139E-2,-2.046398632E-2
1.244935718E1,-1.244637929E-2,2.321287990E-2,-1.802052557E-2
1.245935718E1,-1.611157134E-2,1.649336144E-2,-1.557706390E-2
1.246935718E1,-2.038762718E-2,1.160643995E-2,-1.374446787E-2
1.247935718E1,-2.344195358E-2,7.330383174E-3,-1.557706390E-2
1.248935718E1,-1.855503209E-2,4.886921961E-3,-1.496619824E-2
1.249935688E1,-2.160935849E-2,7.941247895E-3,-1.740965992E-2
1.250935688E1,-1.305724494E-2,6.719517522E-3,-1.985312067E-2
1.251935688E1,-2.038762718E-2,6.719517522E-3,-2.046398632E-2
1.252935688E1,-1.672243699E-2,3.054326167E-3,-2.046398632E-2
1.253935688E1,-1.550070569E-2,-0.000000000E0,-2.046398632E-2
1.254935688E1,-6.337726954E-3,-5.497787148E-3,-1.985312067E-2
1.255935715E1,2.825251780E-3,-1.160643995E-2,-1.924225502E-2
1.256935715E1,1.015563495E-2,-1.527163107E-2,-1.679879427E-2
1.257935715E1,1.565342210E-2,-1.893682219E-2,-1.618792862E-2
1.258935715E1,1.320996135E-2,-1.893682219E-2,-1.496619824E-2
1.259935715E1,1.504255645E-2,-1.710422710E-2,-1.618792862E-2
1.260935688E1,1.320996135E-2,-1.038470957E-2,-1.740965992E-2
1.261935688E1,1.015563495E-2,-3.054326167E-3,-1.679879427E-2
1.262935688E1,8.323038928E-3,-0.000000000E0,-1.679879427E-2
1.263935688E1,1.076649968E-2,4.886921961E-3,-1.740965992E-2
1.264935688E1,1.076649968E-2,9.162978269E-3,-1.924225502E-2
1.265935688E1,1.382082608E-2,1.343903504E-2,-1.985312067E-2
1.266935688E1,2.115120925E-2,1.588249579E-2,-2.107485011E-2
1.267935688E1,1.443169173E-2,1.954768784E-2,-2.046398632E-2
1.268935688E1,9.544769302E-3,2.321287990E-2,-1.985312067E-2
1.269935691E1,7.101308554E-3,2.199114859E-2,-1.740965992E-2
1.270935691E1,-8.399396902E-4,2.321287990E-2,-1.435533352E-2
1.271935691E1,-2.672535367E-3,2.015855350E-2,-1.191187184E-2
1.272935691E1,-8.170322515E-3,1.832595654E-2,-1.130100712E-2
1.273935691E1,-6.948592141E-3,1.893682219E-2,-1.252273750E-2
1.274935665E1,-4.505131394E-3,2.076941915E-2,-1.679879427E-2
1.275935665E1,2.214386594E-3,1.832595654E-2,-1.863138936E-2
1.276935665E1,7.101308554E-3,1.893682219E-2,-1.924225502E-2
1.277935665E1,5.879578181E-3,2.199114859E-2,-1.985312067E-2
1.278935665E1,3.436116967E-3,2.199114859E-2,-1.985312067E-2
1.279935665E1,9.926559869E-4,2.199114859E-2,-1.924225502E-2
1.280935691E1,7.101308554E-3,2.076941915E-2,-2.046398632E-2
1.281935691E1,-1.450804994E-3,2.382374369E-2,-2.107485011E-2
1.282935691E1,1.603521290E-3,1.893682219E-2,-1.924225502E-2
1.283935691E1,-3.894265974E-3,1.649336144E-2,-1.740965992E-2
1.284935691E1,-3.894265974E-3,1.282817032E-2,-1.435533352E-2
1.285935665E1,-2.672535367E-3,1.038470957E-2,-1.435533352E-2
1.286935665E1,-4.505131394E-3,1.160643995E-2,-1.191187184E-2
1.287935665E1,-4.505131394E-3,1.343903504E-2,-1.252273750E-2
1.288935665E1,-6.337726954E-3,2.076941915E-2,-1.496619824E-2
1.289935665E1,-2.061670180E-3,2.260201424E-2,-1.496619824E-2
1.290935665E1,-7.559457328E-3,2.565634064E-2,-1.618792862E-2
1.291935665E1,-5.726861767E-3,2.443460934E-2,-1.435533352E-2
1.292935665E1,-3.894265974E-3,2.199114859E-2,-1.191187184E-2
1.293935665E1,-2.061670180E-3,1.649336144E-2,-1.313360315E-2
1.294935691E1,1.603521290E-3,9.162978269E-3,-1.191187184E-2
1.295935691E1,3.436116967E-3,7.941247895E-3,-7.635815535E-3
1.296935691E1,2.825251780E-3,3.665191587E-3,-5.803219974E-3
1.297935691E1,1.198823005E-2,-4.886921961E-3,-5.192354787E-3
1.298935691E1,9.926559869E-4,1.221730490E-3,-3.359758761E-3
1.299935688E1,-8.399396902E-4,2.443460980E-3,-3.359758761E-3
1.300935688E1,-1.450804994E-3,-6.108652451E-4,9.162978968E-4
1.301935688E1,9.926559869E-4,-6.108652335E-3,5.192354787E-3
1.302935688E1,7.101308554E-3,-5.497787148E-3,3.970623948E-3
1.303935688E1,1.809688285E-2,-4.886921961E-3,3.970623948E-3
1.304935688E1,2.542726509E-2,6.108652451E-4,3.359758761E-3
1.305935714E1,3.275764734E-2,-1.221730490E-3,2.748893574E-3
1.306935714E1,3.642284125E-2,-3.665191587E-3,5.192354787E-3
1.307935714E1,3.947716579E-2,-3.054326167E-3,5.192354787E-3
1.308935714E1,4.314235970E-2,6.108652451E-4,4.581489135E-3
1.309935714E1,4.680754989E-2,7.330383174E-3,2.138028387E-3
1.310935688E1,4.436408728E-2,2.015855350E-2,-2.748893574E-3
1.311935688E1,4.192062840E-2,3.054326214E-2,-7.024950348E-3
1.312935688E1,3.886630014E-2,3.848451003E-2,-8.857546374E-3
1.313935688E1,3.031418845E-2,4.581489414E-2,-1.069014147E-2
1.314935688E1,3.031418845E-2,5.009094998E-2,-1.191187184E-2
1.315935688E1,2.725986205E-2,5.131268129E-2,-1.313360315E-2
1.316935688E1,2.115120925E-2,5.070181563E-2,-1.252273750E-2
1.317935688E1,1.015563495E-2,5.009094998E-2,-1.069014147E-2
1.318935688E1,-2.672535367E-3,4.948008433E-2,-7.024950348E-3
1.319935718E1,-4.505131394E-3,4.825835302E-2,-1.007927675E-2
1.320935718E1,-4.505131394E-3,5.314527452E-2,-8.857546374E-3
1.321935718E1,-3.894265974E-3,6.230825558E-2,-9.468411095E-3
1.322935718E1,-3.894265974E-3,6.780604273E-2,-1.252273750E-2
1.323935744E1,3.436116967E-3,6.780604273E-2,-1.863138936E-2
1.324935718E1,7.712173741E-3,6.658431143E-2,-2.412917651E-2
1.325935718E1,1.992947794E-2,5.558873713E-2,-2.351831272E-2
1.326935718E1,2.725986205E-2,4.703662544E-2,-2.412917651E-2
1.327935718E1,2.115120925E-2,3.909537569E-2,-2.474004216E-2
1.328935718E1,1.809688285E-2,3.298672289E-2,-2.046398632E-2
1.329935744E1,7.712173741E-3,3.054326214E-2,-1.618792862E-2
1.330935771E1,1.687515154E-2,1.832595654E-2,-1.618792862E-2
1.331935771E1,1.748601720E-2,1.527163107E-2,-1.496619824E-2
1.332935771E1,2.054034360E-2,1.588249579E-2,-1.740965992E-2
1.333935771E1,1.565342210E-2,1.954768784E-2,-1.740965992E-2
1.334935771E1,5.268712528E-3,1.588249579E-2,-1.252273750E-2
1.335935744E1,8.933904581E-3,9.162978269E-3,-1.557706390E-2
1.336935744E1,7.712173741E-3,3.054326167E-3,-1.679879427E-2
1.337935744E1,4.046982154E-3,2.443460980E-3,-1.802052557E-2
1.338935744E1,2.825251780E-3,5.497787148E-3,-1.863138936E-2
1.339935744E1,-2.290744742E-4,9.773843922E-3,-2.168571576E-2
1.340935744E1,-9.392052889E-3,5.497787148E-3,-2.596177347E-2
1.341935744E1,-1.672243699E-2,1.221730467E-2,-2.840523422E-2
1.342935744E1,-2.710714564E-2,1.588249579E-2,-2.779436857E-2
1.343935744E1,-2.710714564E-2,1.343903504E-2,-2.718350291E-2
1.344935774E1,-4.176791012E-2,2.015855350E-2,-2.351831272E-2
1.345935774E1,-4.604396969E-2,2.321287990E-2,-2.351831272E-2
1.346935774E1,-4.482223839E-2,2.260201424E-2,-2.168571576E-2
1.347935774E1,-4.665483162E-2,2.199114859E-2,-2.168571576E-2
1.348935774E1,-3.871358559E-2,2.138028294E-2,-2.168571576E-2
1.349935744E1,-3.321579844E-2,2.321287990E-2,-2.168571576E-2
1.350935744E1,-1.977676153E-2,2.138028294E-2,-2.229658142E-2
1.351935744E1,-1.061378326E-2,1.893682219E-2,-2.229658142E-2
1.352935744E1,2.214386594E-3,1.710422710E-2,-2.535090782E-2
1.353935717E1,1.382082608E-2,1.771509275E-2,-2.962696366E-2
1.354935717E1,2.542726509E-2,2.015855350E-2,-3.207042441E-2
1.355935744E1,3.153591976E-2,2.687807009E-2,-3.695734590E-2
1.356935744E1,3.214678168E-2,3.237585723E-2,-3.817907721E-2
1.357935744E1,2.603813075E-2,3.787364438E-2,-3.878994286E-2
1.358935744E1,1.320996135E-2,4.092797264E-2,-3.695734590E-2
1.359935717E1,3.817907709E-4,3.970624134E-2,-3.390302137E-2
1.360935691E1,-1.000291854E-2,3.481931984E-2,-3.145955876E-2
1.361935691E1,-1.672243699E-2,3.115412779E-2,-2.840523422E-2
1.362935691E1,-1.855503209E-2,2.443460934E-2,-2.779436857E-2
1.363935691E1,-2.038762718E-2,1.893682219E-2,-2.535090782E-2
1.364935691E1,-2.344195358E-2,1.343903504E-2,-2.412917651E-2
1.365935691E1,-2.344195358E-2,7.941247895E-3,-2.107485011E-2
1.366935691E1,-1.733330078E-2,4.886921961E-3,-1.924225502E-2
1.367935691E1,-1.916589774E-2,7.330383174E-3,-1.740965992E-2
1.368935691E1,-1.977676153E-2,7.330383174E-3,-1.679879427E-2
1.369935721E1,-1.550070569E-2,4.886921961E-3,-1.924225502E-2
1.370935721E1,-1.916589774E-2,-1.221730490E-3,-2.046398632E-2
1.371935721E1,-1.427897532E-2,-1.221730467E-2,-2.168571576E-2
1.372935721E1,-5.115996581E-3,-2.199114859E-2,-2.107485011E-2
1.373935721E1,5.268712528E-3,-2.932153270E-2,-2.474004216E-2
1.374935691E1,1.137736533E-2,-3.359758854E-2,-2.474004216E-2
1.375935691E1,1.565342210E-2,-3.420845419E-2,-2.596177347E-2
1.376935691E1,1.992947794E-2,-3.604105115E-2,-2.596177347E-2
1.377935717E1,1.809688285E-2,-3.604105115E-2,-2.901609987E-2
1.378935717E1,2.298380435E-2,-3.420845419E-2,-2.901609987E-2
1.379935717E1,3.459024429E-2,-3.543018550E-2,-3.145955876E-2
1.380935744E1,3.275764734E-2,-3.420845419E-2,-3.207042441E-2
1.381935744E1,3.336851299E-2,-3.176499158E-2,-3.329215571E-2
1.382935744E1,3.520110995E-2,-3.115412779E-2,-3.451388702E-2
1.383935744E1,3.153591976E-2,-3.359758854E-2,-3.634648025E-2
1.384935744E1,2.054034360E-2,-2.932153270E-2,-3.207042441E-2
1.385935717E1,1.992947794E-2,-2.565634064E-2,-3.023782931E-2
1.386935717E1,9.544769302E-3,-1.832595654E-2,-2.535090782E-2
1.387935717E1,-3.283400787E-3,-1.221730467E-2,-2.229658142E-2
1.388935717E1,-1.366810966E-2,-1.038470957E-2,-1.007927675E-2
1.389935717E1,-2.710714564E-2,-8.552113548E-3,-3.359758761E-3
1.390935717E1,-3.688098863E-2,-9.773843922E-3,1.527163084E-3
1.391935717E1,-3.932445124E-2,-9.773843922E-3,3.359758761E-3
1.392935717E1,-3.749185428E-2,-1.282817032E-2,3.970623948E-3
1.393935717E1,-4.115704447E-2,-7.330383174E-3,3.359758761E-3
1.394935744E1,-4.237877578E-2,-5.497787148E-3,3.054326226E-4
1.395935744E1,-4.848742858E-2,1.221730490E-3,1.527163084E-3
1.396935744E1,-4.176791012E-2,5.497787148E-3,-3.054326226E-4
1.397935744E1,-3.993531689E-2,9.773843922E-3,-1.527163084E-3
1.398935744E1,-2.649627998E-2,1.466076635E-2,-4.581489135E-3
1.399935714E1,-1.855503209E-2,2.382374369E-2,-3.359758761E-3
1.400935714E1,-1.183551457E-2,3.420845419E-2,-6.414085161E-3
1.401935714E1,-1.122464892E-2,4.520402849E-2,-8.246680722E-3
1.402935714E1,-9.392052889E-3,5.314527452E-2,-1.069014147E-2
1.403935714E1,-1.305724494E-2,6.291911751E-2,-1.191187184E-2
1.404935714E1,-8.781188168E-3,6.475171447E-2,-1.374446787E-2
1.405935740E1,-8.399396902E-4,6.963863969E-2,-1.496619824E-2
1.406935740E1,3.436116967E-3,7.147123665E-2,-1.252273750E-2
1.407935714E1,1.198823005E-2,7.024950534E-2,-1.374446787E-2
1.408935714E1,1.992947794E-2,6.963863969E-2,-1.496619824E-2
1.409935714E1,2.787072770E-2,7.086037099E-2,-1.679879427E-2
1.410935687E1,3.153591976E-2,7.757988572E-2,-1.740965992E-2
1.411935687E1,3.031418845E-2,8.918632567E-2,-1.863138936E-2
1.412935687E1,2.787072770E-2,9.957103431E-2,-1.863138936E-2
1.413935687E1,3.031418845E-2,1.032362282E-1,-1.863138936E-2
1.414935687E1,2.787072770E-2,1.032362282E-1,-1.802052557E-2
1.415935687E1,1.870774850E-2,1.014036313E-1,-1.618792862E-2
1.416935687E1,1.382082608E-2,9.651670605E-2,-1.130100712E-2
1.417935687E1,1.198823005E-2,8.674286306E-2,-8.246680722E-3
1.418935687E1,1.259909570E-2,7.696902007E-2,-7.024950348E-3
1.419935717E1,3.436116967E-3,7.696902007E-2,-6.414085161E-3
1.420935717E1,-2.061670180E-3,7.330382615E-2,-4.581489135E-3
1.421935717E1,-6.948592141E-3,6.719517708E-2,-3.359758761E-3
1.422935717E1,-7.559457328E-3,6.230825558E-2,-2.748893574E-3
1.423935717E1,-1.611157134E-2,6.230825558E-2,-5.192354787E-3
1.424935690E1,-1.794416644E-2,6.169738993E-2,-3.970623948E-3
1.425935690E1,-1.244637929E-2,5.436700583E-2,-4.581489135E-3
1.426935690E1,-1.183551457E-2,5.314527452E-2,-4.581489135E-3
1.427935690E1,-4.505131394E-3,4.948008433E-2,-3.359758761E-3
1.428935690E1,5.268712528E-3,4.520402849E-2,-3.970623948E-3
1.429935690E1,1.076649968E-2,4.031710699E-2,-2.138028387E-3
1.430935717E1,1.259909570E-2,3.787364438E-2,-1.527163084E-3
1.431935717E1,1.015563495E-2,3.787364438E-2,9.162978968E-4
1.432935717E1,9.926559869E-4,4.153883830E-2,2.748893574E-3
1.433935717E1,7.101308554E-3,3.481931984E-2,9.162978968E-4
1.434935717E1,4.046982154E-3,3.543018550E-2,3.054326226E-4
1.435935690E1,3.436116967E-3,3.176499158E-2,-3.054326226E-4
1.436935690E1,7.712173741E-3,2.565634064E-2,-6.414085161E-3
1.437935690E1,1.443169173E-2,1.832595654E-2,-9.468411095E-3
1.438935690E1,2.237293869E-2,1.954768784E-2,-1.374446787E-2
1.439935690E1,3.031418845E-2,2.076941915E-2,-1.802052557E-2
1.440935690E1,3.031418845E-2,2.260201424E-2,-1.924225502E-2
1.441935690E1,2.054034360E-2,2.504547499E-2,-1.802052557E-2
1.442935690E1,1.687515154E-2,2.748893574E-2,-1.985312067E-2
1.443935690E1,1.748601720E-2,2.443460934E-2,-2.107485011E-2
1.444935717E1,1.992947794E-2,1.771509275E-2,-2.107485011E-2
1.445935717E1,7.712173741E-3,1.343903504E-2,-1.924225502E-2
1.446935717E1,3.817907709E-4,9.162978269E-3,-2.046398632E-2
1.447935717E1,-6.337726954E-3,6.108652451E-4,-2.046398632E-2
1.448935717E1,-1.244637929E-2,-7.330383174E-3,-1.863138936E-2
1.449935687E1,-1.305724494E-2,-1.160643995E-2,-1.740965992E-2
1.450935687E1,-2.344195358E-2,-8.552113548E-3,-1.557706390E-2
1.451935687E1,-2.283108793E-2,-9.162978269E-3,-1.435533352E-2
1.452935687E1,-2.038762718E-2,-1.404990070E-2,-1.313360315E-2
1.453935687E1,-1.916589774E-2,-2.260201424E-2,-1.313360315E-2
1.454935687E1,-1.305724494E-2,-3.115412779E-2,-1.496619824E-2
1.455935713E1,-1.061378326E-2,-3.237585723E-2,-1.374446787E-2
1.456935713E1,-4.505131394E-3,-3.237585723E-2,-1.435533352E-2
1.457935713E1,-2.061670180E-3,-2.076941915E-2,-1.618792862E-2
1.458935713E1,6.490443368E-3,-1.710422710E-2,-1.802052557E-2
1.459935713E1,4.046982154E-3,-9.162978269E-3,-1.924225502E-2
1.460935687E1,2.214386594E-3,-1.221730490E-3,-1.802052557E-2
1.461935687E1,-6.948592141E-3,7.941247895E-3,-1.618792862E-2
1.462935687E1,-1.611157134E-2,1.771509275E-2,-1.069014147E-2
1.463935687E1,-2.405281924E-2,2.443460934E-2,-5.192354787E-3
1.464935687E1,-2.832887508E-2,2.748893574E-2,1.527163084E-3
1.465935687E1,-3.138320148E-2,2.871066704E-2,8.246680722E-3
1.466935687E1,-3.016147204E-2,2.748893574E-2,1.130100712E-2
1.467935687E1,-2.710714564E-2,2.504547499E-2,1.496619824E-2
1.468935687E1,-3.199406713E-2,2.748893574E-2,1.802052557E-2
1.469935717E1,-3.077233583E-2,2.443460934E-2,1.863138936E-2
1.470935717E1,-2.955060638E-2,2.565634064E-2,1.679879427E-2
1.471935717E1,-2.893974073E-2,2.932153270E-2,1.679879427E-2
1.472935717E1,-2.527454868E-2,3.726277873E-2,1.435533352E-2
1.473935717E1,-1.794416644E-2,4.092797264E-2,8.857546374E-3
1.474935690E1,-1.000291854E-2,4.337143153E-2,7.024950348E-3
1.475935690E1,4.657847341E-3,4.153883830E-2,3.359758761E-3
1.476935690E1,2.298380435E-2,3.848451003E-2,-2.138028387E-3
1.477935690E1,2.664899640E-2,4.276056588E-2,-2.748893574E-3
1.478935690E1,3.642284125E-2,4.459316283E-2,-3.359758761E-3
1.479935690E1,4.192062840E-2,5.009094998E-2,-4.581489135E-3
1.480935717E1,3.886630014E-2,5.803219974E-2,-5.803219974E-3
1.481935717E1,3.947716579E-2,6.719517708E-2,-8.246680722E-3
1.482935717E1,3.275764734E-2,7.819075137E-2,-7.635815535E-3
1.483935717E1,2.725986205E-2,8.429940045E-2,-8.857546374E-3
1.484935716E1,1.626428775E-2,9.162978828E-2,-5.803219974E-3
1.485935716E1,1.259909570E-2,9.101892263E-2,-3.359758761E-3
1.486935716E1,9.544769302E-3,9.162978828E-2,3.054326226E-4
1.487935716E1,5.879578181E-3,9.285151958E-2,2.138028387E-3
1.488935717E1,-8.399396902E-4,9.407325089E-2,5.192354787E-3
1.489935717E1,-2.290744742E-4,9.285151958E-2,7.635815535E-3
1.490935717E1,3.436116967E-3,9.651670605E-2,5.803219974E-3
1.491935747E1,8.933904581E-3,9.773843735E-2,6.414085161E-3
1.492935746E1,1.443169173E-2,9.896016866E-2,7.635815535E-3
1.493935746E1,2.115120925E-2,9.896016866E-2,5.803219974E-3
1.494935776E1,2.359467000E-2,1.038470939E-1,1.007927675E-2
1.495935777E1,2.970332280E-2,1.026253626E-1,9.468411095E-3
1.496935777E1,3.520110995E-2,1.001819000E-1,1.130100712E-2
1.497935777E1,3.825543448E-2,9.834930301E-2,1.313360315E-2
1.498935777E1,4.741841555E-2,9.162978828E-2,1.252273750E-2
1.499935747E1,5.352706835E-2,8.918632567E-2,1.252273750E-2
1.500935746E1,5.780312419E-2,8.552113175E-2,1.069014147E-2
1.501935746E1,6.024658307E-2,8.307767659E-2,8.246680722E-3
1.502935746E1,6.024658307E-2,7.941248268E-2,6.414085161E-3
1.503935746E1,5.841398984E-2,7.635815442E-2,9.162978968E-4
1.504935747E1,5.291620269E-2,7.452555746E-2,-3.359758761E-3
1.505935773E1,4.375322163E-2,7.269296050E-2,-8.857546374E-3
1.506935773E1,3.459024429E-2,7.147123665E-2,-1.069014147E-2
1.507935773E1,2.970332280E-2,6.841690838E-2,-1.374446787E-2
1.508935773E1,2.542726509E-2,6.047565863E-2,-1.557706390E-2
1.509935773E1,1.870774850E-2,5.619960278E-2,-1.618792862E-2
1.510935746E1,1.504255645E-2,4.886921868E-2,-1.435533352E-2
1.511935746E1,7.712173741E-3,4.642575979E-2,-1.313360315E-2
1.512935746E1,-1.450804994E-3,3.787364438E-2,-1.007927675E-2
1.513935746E1,-1.122464892E-2,3.176499158E-2,-5.803219974E-3
1.514935746E1,-2.405281924E-2,2.809980139E-2,-3.359758761E-3
1.515935720E1,-2.649627998E-2,2.076941915E-2,-2.748893574E-3
1.516935720E1,-2.955060638E-2,1.343903504E-2,-3.970623948E-3
1.517935720E1,-2.649627998E-2,3.665191587E-3,-5.192354787E-3
1.518935720E1,-2.466368489E-2,-3.054326167E-3,-8.246680722E-3
1.519935750E1,-2.222022414E-2,-1.099557430E-2,-7.635815535E-3
1.520935750E1,-1.794416644E-2,-1.832595654E-2,-5.803219974E-3
1.521935720E1,-1.916589774E-2,-1.710422710E-2,-5.192354787E-3
1.522935720E1,-2.283108793E-2,-1.588249579E-2,-4.581489135E-3
1.523935720E1,-3.016147204E-2,-1.466076635E-2,-2.748893574E-3
1.524935690E1,-3.260493279E-2,-1.588249579E-2,-1.527163084E-3
1.525935690E1,-3.138320148E-2,-2.199114859E-2,-2.748893574E-3
1.526935690E1,-2.771801129E-2,-2.565634064E-2,-3.970623948E-3
1.527935690E1,-2.160935849E-2,-2.382374369E-2,-1.007927675E-2
1.528935690E1,-2.344195358E-2,-1.404990070E-2,-8.857546374E-3
1.529935690E1,-1.916589774E-2,-8.552113548E-3,-8.246680722E-3
1.530935716E1,-2.099849284E-2,-4.276056774E-3,-9.468411095E-3
1.531935716E1,-1.305724494E-2,-6.108652451E-4,-1.130100712E-2
1.532935716E1,-8.170322515E-3,5.497787148E-3,-1.252273750E-2
1.533935716E1,-2.290744742E-4,6.719517522E-3,-1.313360315E-2
1.534935716E1,3.817907709E-4,9.162978269E-3,-1.435533352E-2
1.535935690E1,5.879578181E-3,9.162978269E-3,-2.046398632E-2
1.536935690E1,2.214386594E-3,1.160643995E-2,-2.596177347E-2
1.537935690E1,5.268712528E-3,1.466076635E-2,-2.535090782E-2
1.538935690E1,3.817907709E-4,1.893682219E-2,-2.596177347E-2
1.539935690E1,-3.283400787E-3,7.941247895E-3,-2.474004216E-2
1.540935690E1,-5.115996581E-3,1.893682219E-2,-2.535090782E-2
1.541935690E1,-1.061378326E-2,3.237585723E-2,-2.412917651E-2
1.542935690E1,-1.916589774E-2,4.153883830E-2,-2.107485011E-2
1.543935690E1,-3.016147204E-2,4.276056588E-2,-1.557706390E-2
1.544935716E1,-4.054617882E-2,3.848451003E-2,-1.313360315E-2
1.545935716E1,-4.787656292E-2,2.809980139E-2,-1.252273750E-2
1.546935716E1,-4.787656292E-2,1.527163107E-2,-1.374446787E-2
1.547935716E1,-3.810271993E-2,2.443460980E-3,-1.557706390E-2
1.548935716E1,-2.588541433E-2,-3.054326167E-3,-1.802052557E-2
1.549935686E1,-1.427897532E-2,-1.221730490E-3,-2.046398632E-2
1.550935686E1,-3.283400787E-3,3.054326167E-3,-2.535090782E-2
1.551935686E1,2.214386594E-3,1.099557430E-2,-2.962696366E-2
1.552935686E1,4.657847341E-3,1.710422710E-2,-3.084869497E-2
1.553935686E1,6.490443368E-3,2.015855350E-2,-3.268129006E-2
1.554935686E1,5.879578181E-3,2.260201424E-2,-3.145955876E-2
1.555935713E1,8.323038928E-3,2.015855350E-2,-3.084869497E-2
1.556935713E1,1.137736533E-2,1.710422710E-2,-3.023782931E-2
1.557935713E1,1.259909570E-2,9.162978269E-3,-2.901609987E-2
1.558935713E1,1.259909570E-2,1.832595794E-3,-2.779436857E-2
1.559935713E1,1.259909570E-2,-5.497787148E-3,-2.596177347E-2
1.560935686E1,1.015563495E-2,-9.773843922E-3,-2.290744707E-2
1.561935686E1,1.259909570E-2,-7.330383174E-3,-2.290744707E-2
1.562935686E1,1.443169173E-2,-3.665191587E-3,-2.351831272E-2
1.563935686E1,1.748601720E-2,2.443460980E-3,-2.718350291E-2
1.564935686E1,1.687515154E-2,4.276056774E-3,-3.084869497E-2
1.565935686E1,1.809688285E-2,1.038470957E-2,-3.817907721E-2
1.566935686E1,1.870774850E-2,1.038470957E-2,-4.062253982E-2
1.567935686E1,1.748601720E-2,1.221730467E-2,-4.245513305E-2
1.568935686E1,1.504255645E-2,9.162978269E-3,-4.306599870E-2
1.569935689E1,8.323038928E-3,8.552113548E-3,-4.062253982E-2
1.570935689E1,9.926559869E-4,8.552113548E-3,-3.695734590E-2
1.571935689E1,-6.337726954E-3,8.552113548E-3,-3.329215571E-2
1.572935689E1,-1.305724494E-2,7.330383174E-3,-2.779436857E-2
1.573935689E1,-1.427897532E-2,3.665191587E-3,-2.290744707E-2
1.574935663E1,-1.855503209E-2,5.497787148E-3,-1.740965992E-2
1.575935663E1,-1.855503209E-2,7.941247895E-3,-1.374446787E-2
1.576935663E1,-1.794416644E-2,1.404990070E-2,-1.130100712E-2
1.577935663E1,-1.550070569E-2,1.832595654E-2,-1.069014147E-2
1.578935663E1,-1.244637929E-2,1.893682219E-2,-1.007927675E-2
1.579935663E1,-1.061378326E-2,1.954768784E-2,-1.191187184E-2
1.580935689E1,-8.170322515E-3,2.260201424E-2,-1.130100712E-2
1.581935689E1,-6.337726954E-3,2.809980139E-2,-1.313360315E-2
1.582935689E1,-5.115996581E-3,3.481931984E-2,-1.435533352E-2
1.583935689E1,-1.366810966E-2,4.581489414E-2,-1.374446787E-2
1.584935689E1,-2.160935849E-2,4.886921868E-2,-1.252273750E-2
1.585935663E1,-2.099849284E-2,4.520402849E-2,-1.007927675E-2
1.586935663E1,-2.099849284E-2,4.276056588E-2,-8.857546374E-3
1.587935663E1,-1.977676153E-2,4.825835302E-2,-5.803219974E-3
1.588935663E1,-1.000291854E-2,4.886921868E-2,-7.024950348E-3
1.589935663E1,-8.399396902E-4,4.825835302E-2,-7.024950348E-3
1.590935663E1,-2.290744742E-4,4.948008433E-2,-7.635815535E-3
1.591935663E1,4.046982154E-3,4.948008433E-2,-8.246680722E-3
1.592935663E1,5.268712528E-3,5.009094998E-2,-7.024950348E-3
1.593935663E1,1.565342210E-2,4.825835302E-2,-6.414085161E-3
1.594935689E1,3.031418845E-2,4.886921868E-2,-7.024950348E-3
1.595935689E1,4.069889709E-2,5.558873713E-2,-8.857546374E-3
1.596935689E1,4.619668424E-2,6.169738993E-2,-1.130100712E-2
1.597935689E1,4.375322163E-2,6.475171447E-2,-1.313360315E-2
1.598935689E1,4.253149405E-2,5.864306539E-2,-2.229658142E-2
1.599935713E1,3.886630014E-2,5.681046844E-2,-2.596177347E-2
1.600935712E1,3.764457256E-2,5.742133409E-2,-2.779436857E-2
1.601935713E1,2.237293869E-2,6.169738993E-2,-2.474004216E-2
1.602935712E1,1.259909570E-2,6.536258012E-2,-2.412917651E-2
1.603935713E1,-7.559457328E-3,7.269296050E-2,-2.168571576E-2
1.604935712E1,-1.488984004E-2,7.086037099E-2,-1.863138936E-2
1.605935719E1,-1.733330078E-2,6.902777404E-2,-1.740965992E-2
1.606935719E1,-1.305724494E-2,6.841690838E-2,-1.435533352E-2
1.607935719E1,-1.488984004E-2,6.963863969E-2,-9.468411095E-3
1.608935719E1,-2.099849284E-2,7.086037099E-2,-8.246680722E-3
1.609935719E1,-1.672243699E-2,6.352998316E-2,-5.803219974E-3
1.610935692E1,-2.099849284E-2,5.436700583E-2,-4.581489135E-3
1.611935692E1,-2.283108793E-2,5.009094998E-2,-6.414085161E-3
1.612935692E1,-1.550070569E-2,4.276056588E-2,-8.857546374E-3
1.613935692E1,-3.894265974E-3,3.787364438E-2,-1.252273750E-2
1.614935692E1,-2.061670180E-3,4.214970022E-2,-1.435533352E-2
1.615935692E1,3.817907709E-4,4.092797264E-2,-1.740965992E-2
1.616935692E1,-6.337726954E-3,4.092797264E-2,-1.618792862E-2
1.617935692E1,-1.366810966E-2,4.153883830E-2,-1.496619824E-2
1.618935692E1,-1.488984004E-2,3.237585723E-2,-1.496619824E-2
1.619935719E1,-1.305724494E-2,2.260201424E-2,-1.374446787E-2
1.620935719E1,-1.450804994E-3,1.160643995E-2,-1.802052557E-2
1.621935719E1,3.436116967E-3,4.886921961E-3,-2.229658142E-2
1.622935719E1,1.015563495E-2,1.221730490E-3,-2.168571576E-2
1.623935719E1,1.320996135E-2,6.108652451E-4,-2.412917651E-2
1.624935692E1,1.870774850E-2,-1.221730490E-3,-2.535090782E-2
1.625935692E1,2.115120925E-2,-4.886921961E-3,-2.596177347E-2
1.626935692E1,1.443169173E-2,-1.221730467E-2,-2.535090782E-2
1.627935692E1,1.443169173E-2,-9.773843922E-3,-3.023782931E-2
1.628935692E1,5.268712528E-3,-3.054326167E-3,-3.207042441E-2
1.629935666E1,-3.894265974E-3,-2.443460980E-3,-3.084869497E-2
1.630935692E1,-8.781188168E-3,-3.665191587E-3,-3.145955876E-2
1.631935692E1,-1.244637929E-2,-3.054326167E-3,-2.962696366E-2
1.632935692E1,-2.405281924E-2,-9.162978269E-3,-2.596177347E-2
1.633935692E1,-3.077233583E-2,-1.466076635E-2,-1.924225502E-2
1.634935692E1,-4.604396969E-2,-1.710422710E-2,-1.557706390E-2
1.635935686E1,-4.665483162E-2,-2.504547499E-2,-1.007927675E-2
1.636935686E1,-4.604396969E-2,-3.115412779E-2,-9.468411095E-3
1.637935686E1,-3.504839167E-2,-4.153883830E-2,-1.007927675E-2
1.638935686E1,-2.344195358E-2,-4.886921868E-2,-1.313360315E-2
1.639935686E1,-1.000291854E-2,-5.314527452E-2,-1.374446787E-2
1.640935686E1,-2.061670180E-3,-5.070181563E-2,-1.618792862E-2
1.641935686E1,-8.781188168E-3,-4.031710699E-2,-1.618792862E-2
1.642935686E1,-2.099849284E-2,-2.748893574E-2,-1.313360315E-2
1.643935686E1,-2.649627998E-2,-2.260201424E-2,-1.130100712E-2
1.644935712E1,-2.527454868E-2,-1.893682219E-2,-2.138028387E-3
1.645935712E1,-2.099849284E-2,-2.138028294E-2,3.359758761E-3
1.646935712E1,-9.392052889E-3,-3.237585723E-2,7.635815535E-3
1.647935712E1,2.214386594E-3,-4.459316283E-2,8.857546374E-3
1.648935712E1,4.657847341E-3,-5.497787148E-2,1.007927675E-2
1.649935712E1,3.436116967E-3,-5.619960278E-2,7.635815535E-3
1.650935712E1,-1.450804994E-3,-5.314527452E-2,6.414085161E-3
1.651935712E1,-5.726861767E-3,-4.459316283E-2,3.359758761E-3
1.652935712E1,-8.781188168E-3,-3.909537569E-2,-1.527163084E-3
1.653935712E1,-3.894265974E-3,-3.848451003E-2,-6.414085161E-3
1.654935712E1,1.076649968E-2,-4.703662544E-2,-1.313360315E-2
1.655935739E1,1.687515154E-2,-5.558873713E-2,-1.679879427E-2
1.656935739E1,2.359467000E-2,-6.291911751E-2,-1.618792862E-2
1.657935705E1,2.420553565E-2,-7.024950534E-2,-1.496619824E-2
1.658935705E1,2.237293869E-2,-7.574728876E-2,-1.374446787E-2
1.659935705E1,1.992947794E-2,-7.635815442E-2,-1.191187184E-2
1.660935679E1,1.626428775E-2,-7.208210230E-2,-1.191187184E-2
1.661935679E1,1.198823005E-2,-6.841690838E-2,-1.252273750E-2
1.662935679E1,5.879578181E-3,-6.841690838E-2,-8.857546374E-3
1.663935679E1,-3.283400787E-3,-6.902777404E-2,-1.069014147E-2
1.664935679E1,-1.183551457E-2,-6.963863969E-2,-5.803219974E-3
1.665935679E1,-2.160935849E-2,-6.597344577E-2,-3.359758761E-3
1.666935679E1,-2.405281924E-2,-6.658431143E-2,-2.138028387E-3
1.667935679E1,-2.832887508E-2,-6.108652428E-2,3.054326226E-4
1.668935679E1,-2.588541433E-2,-5.558873713E-2,3.359758761E-3
1.669935709E1,-1.488984004E-2,-5.314527452E-2,3.970623948E-3
1.670935709E1,-1.794416644E-2,-4.276056588E-2,7.024950348E-3
1.671935709E1,-1.183551457E-2,-3.298672289E-2,7.024950348E-3
1.672935709E1,-5.726861767E-3,-2.504547499E-2,5.192354787E-3
1.673935709E1,9.926559869E-4,-1.466076635E-2,9.162978968E-4
1.674935682E1,1.076649968E-2,-4.276056774E-3,3.054326226E-4
1.675935682E1,1.626428775E-2,6.108652335E-3,-7.024950348E-3
1.676935682E1,2.603813075E-2,1.649336144E-2,-1.069014147E-2
1.677935682E1,2.481640130E-2,2.748893574E-2,-1.802052557E-2
1.678935682E1,3.031418845E-2,4.153883830E-2,-2.168571576E-2
1.679935655E1,3.031418845E-2,5.925392732E-2,-2.596177347E-2
1.680935682E1,2.787072770E-2,7.635815442E-2,-2.840523422E-2
1.681935682E1,2.848159149E-2,8.735372871E-2,-2.779436857E-2
1.682935682E1,3.275764734E-2,9.651670605E-2,-3.207042441E-2
1.683935682E1,3.886630014E-2,1.007927656E-1,-3.084869497E-2
1.684935682E1,3.153591976E-2,1.117883399E-1,-3.023782931E-2
1.685935655E1,2.909245715E-2,1.166752651E-1,-2.840523422E-2
1.686935655E1,1.870774850E-2,1.227839142E-1,-2.351831272E-2
1.687935688E1,1.504255645E-2,1.276708394E-1,-1.802052557E-2
1.688935715E1,9.544769302E-3,1.288925707E-1,-1.191187184E-2
1.689935715E1,7.712173741E-3,1.227839142E-1,1.527163084E-3
1.690935715E1,2.825251780E-3,1.111774743E-1,1.191187184E-2
1.691935715E1,5.879578181E-3,9.834930301E-2,1.740965992E-2
1.692935715E1,4.657847341E-3,8.613199741E-2,2.474004216E-2
1.693935715E1,5.268712528E-3,7.574728876E-2,2.718350291E-2
1.694935742E1,3.436116967E-3,6.414084882E-2,2.962696366E-2
1.695935742E1,-3.894265974E-3,5.681046844E-2,3.084869497E-2
1.696935742E1,-4.505131394E-3,5.436700583E-2,3.084869497E-2
1.697935742E1,-9.392052889E-3,5.070181563E-2,3.023782931E-2
1.698935742E1,-3.894265974E-3,4.092797264E-2,2.901609987E-2
1.699935712E1,-3.283400787E-3,3.665191308E-2,1.985312067E-2
1.700935712E1,4.046982154E-3,3.543018550E-2,1.130100712E-2
1.701935712E1,6.490443368E-3,4.092797264E-2,6.414085161E-3
1.702935712E1,1.076649968E-2,4.398229718E-2,-9.162978968E-4
1.703935712E1,1.259909570E-2,4.948008433E-2,-5.803219974E-3
1.704935712E1,1.320996135E-2,5.314527452E-2,-1.191187184E-2
1.705935738E1,7.712173741E-3,5.497787148E-2,-1.374446787E-2
1.706935738E1,9.926559869E-4,5.497787148E-2,-1.740965992E-2
1.707935738E1,-3.894265974E-3,5.192354694E-2,-1.802052557E-2
1.708935738E1,-1.366810966E-2,5.253441259E-2,-1.802052557E-2
1.709935738E1,-2.222022414E-2,4.825835302E-2,-1.802052557E-2
1.710935712E1,-1.672243699E-2,4.642575979E-2,-1.863138936E-2
1.711935712E1,-1.611157134E-2,5.131268129E-2,-2.168571576E-2
1.712935712E1,-3.894265974E-3,4.825835302E-2,-2.657263726E-2
1.713935712E1,9.926559869E-4,4.948008433E-2,-2.596177347E-2
1.714935712E1,6.490443368E-3,4.398229718E-2,-2.718350291E-2
1.715935712E1,1.382082608E-2,3.176499158E-2,-2.718350291E-2
1.716935712E1,1.687515154E-2,2.382374369E-2,-2.962696366E-2
1.717935712E1,1.687515154E-2,2.626720630E-2,-3.512475267E-2
1.718935685E1,8.323038928E-3,2.382374369E-2,-2.901609987E-2
1.719935715E1,-2.061670180E-3,1.771509275E-2,-2.718350291E-2
1.720935715E1,-6.337726954E-3,9.162978269E-3,-2.290744707E-2
1.721935715E1,-1.183551457E-2,-1.832595794E-3,-2.229658142E-2
1.722935715E1,-9.392052889E-3,-1.160643995E-2,-2.107485011E-2
1.723935715E1,-8.781188168E-3,-1.771509275E-2,-1.679879427E-2
1.724935688E1,-1.061378326E-2,-1.893682219E-2,-1.496619824E-2
1.725935688E1,-1.672243699E-2,-1.954768784E-2,-1.679879427E-2
1.726935688E1,-2.099849284E-2,-1.771509275E-2,-1.924225502E-2
1.727935688E1,-2.222022414E-2,-1.282817032E-2,-2.046398632E-2
1.728935688E1,-2.405281924E-2,-6.108652335E-3,-2.229658142E-2
1.729935688E1,-2.649627998E-2,-6.108652451E-4,-2.107485011E-2
1.730935715E1,-2.710714564E-2,6.108652335E-3,-2.290744707E-2
1.731935715E1,-2.588541433E-2,1.160643995E-2,-2.474004216E-2
1.732935715E1,-3.077233583E-2,1.466076635E-2,-2.657263726E-2
1.733935715E1,-3.260493279E-2,1.527163107E-2,-2.657263726E-2
1.734935715E1,-4.115704447E-2,1.832595654E-2,-2.351831272E-2
1.735935688E1,-4.421137273E-2,1.954768784E-2,-2.107485011E-2
1.736935688E1,-4.482223839E-2,2.015855350E-2,-1.863138936E-2
1.737935688E1,-4.237877578E-2,1.954768784E-2,-1.679879427E-2
1.738935688E1,-3.871358559E-2,1.954768784E-2,-2.046398632E-2
1.739935688E1,-3.077233583E-2,1.771509275E-2,-2.474004216E-2
1.740935688E1,-2.710714564E-2,1.771509275E-2,-2.840523422E-2
1.741935688E1,-2.405281924E-2,1.832595654E-2,-2.962696366E-2
1.742935688E1,-2.588541433E-2,1.954768784E-2,-3.207042441E-2
1.743935688E1,-2.710714564E-2,2.321287990E-2,-2.962696366E-2
1.744935715E1,-2.771801129E-2,2.932153270E-2,-2.962696366E-2
1.745935715E1,-3.077233583E-2,4.031710699E-2,-2.901609987E-2
1.746935715E1,-3.199406713E-2,4.398229718E-2,-3.023782931E-2
1.747935715E1,-2.710714564E-2,4.581489414E-2,-3.023782931E-2
1.748935715E1,-1.977676153E-2,4.337143153E-2,-3.207042441E-2
1.749935685E1,-2.038762718E-2,4.153883830E-2,-3.329215571E-2
1.750935685E1,-1.855503209E-2,3.787364438E-2,-3.268129006E-2
1.751935685E1,-1.733330078E-2,3.359758854E-2,-3.329215571E-2
1.752935685E1,-1.733330078E-2,3.115412779E-2,-3.268129006E-2
1.753935685E1,-1.672243699E-2,2.993239649E-2,-3.145955876E-2
1.754935685E1,-1.733330078E-2,3.359758854E-2,-3.084869497E-2
1.755935711E1,-6.948592141E-3,3.176499158E-2,-3.390302137E-2
1.756935711E1,1.603521290E-3,3.359758854E-2,-3.451388702E-2
1.757935711E1,1.504255645E-2,3.054326214E-2,-3.512475267E-2
1.758935711E1,2.848159149E-2,2.626720630E-2,-3.878994286E-2
1.759935711E1,1.748601720E-2,3.359758854E-2,-3.878994286E-2
1.760935684E1,2.825251780E-3,3.909537569E-2,-3.878994286E-2
1.761935685E1,-1.450804994E-3,3.726277873E-2,-3.512475267E-2
1.762935684E1,5.268712528E-3,2.626720630E-2,-3.329215571E-2
1.763935685E1,1.320996135E-2,1.343903504E-2,-2.779436857E-2
1.764935684E1,2.237293869E-2,2.443460980E-3,-2.474004216E-2
1.765935684E1,3.214678168E-2,-4.886921961E-3,-2.107485011E-2
1.766935684E1,3.092505224E-2,-1.099557430E-2,-1.740965992E-2
1.767935684E1,2.664899640E-2,-1.588249579E-2,-1.374446787E-2
1.768935685E1,1.748601720E-2,-1.710422710E-2,-1.191187184E-2
1.769935714E1,7.101308554E-3,-1.771509275E-2,-1.069014147E-2
1.770935715E1,5.268712528E-3,-1.771509275E-2,-1.130100712E-2
1.771935714E1,2.214386594E-3,-1.710422710E-2,-1.313360315E-2
1.772935714E1,2.825251780E-3,-1.649336144E-2,-1.435533352E-2
1.773935714E1,3.817907709E-4,-1.404990070E-2,-1.252273750E-2
1.774935688E1,5.879578181E-3,-1.771509275E-2,-1.252273750E-2
1.775935688E1,5.879578181E-3,-1.404990070E-2,-1.130100712E-2
1.776935688E1,4.657847341E-3,-7.941247895E-3,-7.635815535E-3
1.777935688E1,1.076649968E-2,-6.108652335E-3,-8.857546374E-3
1.778935688E1,8.323038928E-3,1.221730490E-3,-8.857546374E-3
1.779935688E1,4.657847341E-3,1.099557430E-2,-1.130100712E-2
1.780935714E1,-8.399396902E-4,2.565634064E-2,-1.435533352E-2
1.781935714E1,-1.000291854E-2,3.970624134E-2,-1.802052557E-2
1.782935714E1,-1.977676153E-2,5.558873713E-2,-2.229658142E-2
1.783935714E1,-2.955060638E-2,6.536258012E-2,-2.657263726E-2
1.784935714E1,-3.688098863E-2,6.841690838E-2,-2.535090782E-2
1.785935688E1,-3.932445124E-2,6.963863969E-2,-2.474004216E-2
1.786935688E1,-3.932445124E-2,6.902777404E-2,-2.412917651E-2
1.787935688E1,-3.627012298E-2,7.024950534E-2,-2.168571576E-2
1.788935688E1,-3.382666409E-2,7.086037099E-2,-2.046398632E-2
1.789935688E1,-2.771801129E-2,6.475171447E-2,-1.924225502E-2
1.790935688E1,-1.977676153E-2,5.803219974E-2,-1.679879427E-2
1.791935688E1,-1.183551457E-2,5.070181563E-2,-1.252273750E-2
1.792935688E1,-3.283400787E-3,4.703662544E-2,-1.191187184E-2
1.793935688E1,4.046982154E-3,4.153883830E-2,-8.246680722E-3
1.794935714E1,8.933904581E-3,3.665191308E-2,-4.581489135E-3
1.795935714E1,1.320996135E-2,3.054326214E-2,-3.970623948E-3
1.796935714E1,9.544769302E-3,2.687807009E-2,-1.527163084E-3
1.797935714E1,8.323038928E-3,2.260201424E-2,3.054326226E-4
1.798935714E1,1.015563495E-2,2.199114859E-2,9.162978968E-4
1.799935684E1,1.076649968E-2,2.504547499E-2,2.748893574E-3
1.800935684E1,1.320996135E-2,3.176499158E-2,1.527163084E-3
1.801935684E1,1.443169173E-2,3.604105115E-2,3.054326226E-4
1.802935684E1,1.626428775E-2,4.581489414E-2,-3.054326226E-4
1.803935684E1,1.809688285E-2,5.070181563E-2,-3.359758761E-3
1.804935684E1,2.298380435E-2,5.864306539E-2,-5.192354787E-3
1.805935711E1,2.481640130E-2,6.841690838E-2,-7.635815535E-3
1.806935711E1,2.542726509E-2,7.880161703E-2,-1.069014147E-2
1.807935711E1,2.420553565E-2,8.857546002E-2,-1.069014147E-2
1.808935711E1,2.054034360E-2,9.773843735E-2,-1.374446787E-2
1.809935711E1,1.809688285E-2,1.050688252E-1,-1.618792862E-2
1.810935684E1,8.933904581E-3,1.130100712E-1,-1.802052557E-2
1.811935684E1,9.926559869E-4,1.209513173E-1,-1.557706390E-2
1.812935684E1,-5.115996581E-3,1.270599663E-1,-1.557706390E-2
1.813935684E1,-8.781188168E-3,1.276708394E-1,-1.313360315E-2
1.814935684E1,-1.305724494E-2,1.270599663E-1,-8.857546374E-3
1.815935684E1,-1.183551457E-2,1.221730486E-1,-6.414085161E-3
1.816935684E1,-8.781188168E-3,1.191187203E-1,-3.970623948E-3
1.817935684E1,-7.559457328E-3,1.142318025E-1,-2.748893574E-3
1.818935684E1,-2.672535367E-3,1.069014147E-1,-3.970623948E-3
1.819935711E1,-2.290744742E-4,1.007927656E-1,-1.527163084E-3
1.820935711E1,-3.894265974E-3,9.773843735E-2,-3.970623948E-3
1.821935711E1,-7.559457328E-3,9.346238524E-2,-2.748893574E-3
1.822935711E1,-1.122464892E-2,8.552113175E-2,3.054326226E-4
1.823935711E1,-1.366810966E-2,7.635815442E-2,3.359758761E-3
1.824935684E1,-1.611157134E-2,6.352998316E-2,3.970623948E-3
1.825935684E1,-1.488984004E-2,5.619960278E-2,7.024950348E-3
1.826935684E1,-6.337726954E-3,4.459316283E-2,4.581489135E-3
1.827935684E1,-1.450804994E-3,3.726277873E-2,3.054326226E-4
1.828935684E1,3.436116967E-3,3.176499158E-2,-3.359758761E-3
1.829935684E1,8.323038928E-3,2.993239649E-2,-7.024950348E-3
1.830935711E1,6.490443368E-3,2.687807009E-2,-1.069014147E-2
1.831935711E1,4.657847341E-3,2.748893574E-2,-1.435533352E-2
1.832935711E1,1.603521290E-3,2.687807009E-2,-1.802052557E-2
1.833935711E1,-1.000291854E-2,2.932153270E-2,-2.229658142E-2
1.834935711E1,-1.427897532E-2,2.076941915E-2,-2.351831272E-2
1.835935684E1,-1.733330078E-2,2.565634064E-2,-2.962696366E-2
1.836935684E1,-3.077233583E-2,2.809980139E-2,-3.268129006E-2
1.837935684E1,-3.565925732E-2,3.543018550E-2,-2.901609987E-2
1.838935684E1,-3.993531689E-2,3.237585723E-2,-2.657263726E-2
1.839935684E1,-4.115704447E-2,2.993239649E-2,-2.474004216E-2
1.840935684E1,-3.749185428E-2,2.260201424E-2,-2.351831272E-2
1.841935684E1,-2.832887508E-2,5.497787148E-3,-2.290744707E-2
1.842935684E1,-1.855503209E-2,-1.282817032E-2,-2.412917651E-2
1.843935684E1,-9.392052889E-3,-2.260201424E-2,-2.596177347E-2
1.844935711E1,-4.505131394E-3,-3.054326214E-2,-2.901609987E-2
1.845935711E1,-1.305724494E-2,-3.237585723E-2,-2.779436857E-2
1.846935711E1,-1.672243699E-2,-3.115412779E-2,-3.023782931E-2
1.847935711E1,-1.611157134E-2,-3.115412779E-2,-3.207042441E-2
1.848935711E1,-1.733330078E-2,-2.932153270E-2,-3.268129006E-2
1.849935684E1,-2.222022414E-2,-2.565634064E-2,-3.207042441E-2
1.850935684E1,-2.222022414E-2,-2.382374369E-2,-3.329215571E-2
1.851935684E1,-2.649627998E-2,-2.565634064E-2,-3.268129006E-2
1.852935684E1,-2.710714564E-2,-3.481931984E-2,-3.207042441E-2
1.853935684E1,-2.649627998E-2,-4.398229718E-2,-3.023782931E-2
1.854935684E1,-2.832887508E-2,-4.948008433E-2,-2.779436857E-2
1.855935710E1,-2.222022414E-2,-5.681046844E-2,-2.474004216E-2
1.856935710E1,-2.099849284E-2,-6.536258012E-2,-2.351831272E-2
1.857935710E1,-6.337726954E-3,-7.757988572E-2,-2.351831272E-2
1.858935710E1,-2.061670180E-3,-8.735372871E-2,-2.596177347E-2
1.859935711E1,-3.894265974E-3,-8.918632567E-2,-3.023782931E-2
1.860935684E1,3.817907709E-4,-9.224065393E-2,-3.451388702E-2
1.861935684E1,-8.399396902E-4,-9.285151958E-2,-4.245513305E-2
1.862935684E1,-6.948592141E-3,-9.101892263E-2,-4.673119262E-2
1.863935684E1,-2.527454868E-2,-8.796459436E-2,-5.161811411E-2
1.864935684E1,-4.176791012E-2,-8.246681094E-2,-5.283984542E-2
1.865935684E1,-5.032002553E-2,-8.735372871E-2,-5.283984542E-2
1.866935684E1,-5.642867833E-2,-9.896016866E-2,-5.100724846E-2
1.867935684E1,-6.375905871E-2,-1.130100712E-1,-4.673119262E-2
1.868935684E1,-6.803511828E-2,-1.215621829E-1,-4.367686436E-2
1.869935714E1,-6.620252132E-2,-1.301143020E-1,-4.306599870E-2
1.870935714E1,-6.620252132E-2,-1.350012124E-1,-4.550946131E-2
1.871935714E1,-5.765040591E-2,-1.343903542E-1,-4.489859566E-2
1.872935714E1,-4.482223839E-2,-1.246165112E-1,-4.856378585E-2
1.873935714E1,-2.710714564E-2,-1.099557430E-1,-5.345070735E-2
1.874935687E1,-1.000291854E-2,-9.834930301E-2,-5.467243865E-2
1.875935687E1,-8.399396902E-4,-8.491026610E-2,-5.161811411E-2
1.876935687E1,1.603521290E-3,-7.819075137E-2,-4.489859566E-2
1.877935687E1,-3.283400787E-3,-6.475171447E-2,-4.001167417E-2
1.878935687E1,-1.366810966E-2,-5.192354694E-2,-2.962696366E-2
1.879935687E1,-3.260493279E-2,-3.543018550E-2,-2.412917651E-2
1.880935714E1,-4.604396969E-2,-2.504547499E-2,-1.435533352E-2
1.881935714E1,-6.314819306E-2,-1.282817032E-2,-9.468411095E-3
1.882935714E1,-8.086328954E-2,-3.665191587E-3,-5.192354787E-3
1.883935714E1,-9.124799818E-2,-4.276056774E-3,9.162978968E-4
1.884935714E1,-9.369145334E-2,-1.282817032E-2,2.748893574E-3
1.885935687E1,-8.452847600E-2,-2.504547499E-2,5.192354787E-3
1.886935687E1,-7.353290170E-2,-4.031710699E-2,1.069014147E-2
1.887935687E1,-5.765040591E-2,-4.886921868E-2,1.435533352E-2
1.888935687E1,-5.032002553E-2,-5.070181563E-2,1.557706390E-2
1.889935687E1,-3.932445124E-2,-4.337143153E-2,1.313360315E-2
1.890935687E1,-4.298964143E-2,-2.382374369E-2,1.191187184E-2
1.891935687E1,-4.970915988E-2,-6.108652451E-4,7.635815535E-3
1.892935687E1,-6.131559983E-2,1.954768784E-2,2.138028387E-3
1.893935687E1,-7.292203605E-2,3.787364438E-2,-3.970623948E-3
1.894935714E1,-8.330674469E-2,4.764748737E-2,-8.246680722E-3
1.895935714E1,-8.758280426E-2,5.375614017E-2,-1.130100712E-2
1.896935714E1,-8.086328954E-2,5.192354694E-2,-1.252273750E-2
1.897935714E1,-6.742425263E-2,4.642575979E-2,-1.252273750E-2
1.898935714E1,-4.726569727E-2,3.970624134E-2,-1.313360315E-2
1.899935684E1,-2.466368489E-2,3.726277873E-2,-9.468411095E-3
1.900935684E1,-6.337726954E-3,3.909537569E-2,-1.007927675E-2
1.901935684E1,8.323038928E-3,4.214970022E-2,-7.024950348E-3
1.902935684E1,1.870774850E-2,5.497787148E-2,-1.069014147E-2
1.903935684E1,1.809688285E-2,6.963863969E-2,-1.496619824E-2
1.904935684E1,1.809688285E-2,8.246681094E-2,-1.740965992E-2
1.905935710E1,2.115120925E-2,9.346238524E-2,-2.229658142E-2
1.906935710E1,2.603813075E-2,1.026253626E-1,-2.779436857E-2
1.907935710E1,3.397937864E-2,1.136209369E-1,-2.779436857E-2
1.908935710E1,4.253149405E-2,1.215621829E-1,-2.840523422E-2
1.909935710E1,4.925100878E-2,1.331686229E-1,-2.474004216E-2
1.910935684E1,5.352706835E-2,1.392772794E-1,-2.290744707E-2
1.911935684E1,4.864014685E-2,1.459967941E-1,-1.557706390E-2
1.912935684E1,4.497495294E-2,1.490511149E-1,-8.857546374E-3
1.913935684E1,3.947716579E-2,1.496619880E-1,-5.192354787E-3
1.914935684E1,3.825543448E-2,1.466076523E-1,-3.054326226E-4
1.915935684E1,3.459024429E-2,1.417207420E-1,9.162978968E-4
1.916935684E1,2.848159149E-2,1.362229437E-1,1.527163084E-3
1.917935684E1,2.725986205E-2,1.264491081E-1,9.162978968E-4
1.918935684E1,3.336851299E-2,1.197295859E-1,-1.527163084E-3
1.919935714E1,2.970332280E-2,1.166752651E-1,-2.138028387E-3
1.920935714E1,2.970332280E-2,1.123992056E-1,-3.359758761E-3
1.921935740E1,2.970332280E-2,1.075122803E-1,-5.192354787E-3
1.922935740E1,2.481640130E-2,1.038470939E-1,-6.414085161E-3
1.923935740E1,2.420553565E-2,9.651670605E-2,-7.024950348E-3
1.924935713E1,2.787072770E-2,8.552113175E-2,-7.024950348E-3
1.925935713E1,2.848159149E-2,6.963863969E-2,-8.857546374E-3
1.926935713E1,3.153591976E-2,5.497787148E-2,-1.130100712E-2
1.927935713E1,2.298380435E-2,4.398229718E-2,-1.252273750E-2
1.928935713E1,1.320996135E-2,3.665191308E-2,-1.252273750E-2
1.929935713E1,2.214386594E-3,3.420845419E-2,-1.069014147E-2
1.930935740E1,-8.781188168E-3,3.604105115E-2,-9.468411095E-3
1.931935740E1,-1.366810966E-2,3.481931984E-2,-8.246680722E-3
1.932935740E1,-1.366810966E-2,3.420845419E-2,-4.581489135E-3
1.933935740E1,-2.099849284E-2,3.604105115E-2,-2.748893574E-3
1.934935740E1,-2.588541433E-2,3.481931984E-2,-9.162978968E-4
1.935935713E1,-3.749185428E-2,3.604105115E-2,3.359758761E-3
1.936935713E1,-5.032002553E-2,3.848451003E-2,4.581489135E-3
1.937935713E1,-7.353290170E-2,4.398229718E-2,9.468411095E-3
1.938935713E1,-8.758280426E-2,4.153883830E-2,1.496619824E-2
1.939935713E1,-9.124799818E-2,3.543018550E-2,1.679879427E-2
1.940935713E1,-9.063713253E-2,2.687807009E-2,1.863138936E-2
1.941935713E1,-7.780896127E-2,1.466076635E-2,1.618792862E-2
1.942935713E1,-7.414376736E-2,1.160643995E-2,1.740965992E-2
1.943935713E1,-5.703954399E-2,9.773843922E-3,1.863138936E-2
1.944935740E1,-5.398521572E-2,1.343903504E-2,2.046398632E-2
1.945935740E1,-4.543310404E-2,8.552113548E-3,2.046398632E-2
1.946935740E1,-2.955060638E-2,3.665191587E-3,2.046398632E-2
1.947935740E1,-1.366810966E-2,-6.108652451E-4,2.046398632E-2
1.948935740E1,-2.290744742E-4,2.443460980E-3,1.985312067E-2
1.949935710E1,2.054034360E-2,2.443460980E-3,1.679879427E-2
1.950935710E1,2.970332280E-2,7.330383174E-3,1.557706390E-2
1.951935683E1,3.947716579E-2,1.099557430E-2,1.618792862E-2
1.952935683E1,3.642284125E-2,2.076941915E-2,1.618792862E-2
1.953935683E1,2.848159149E-2,3.359758854E-2,1.802052557E-2
1.954935683E1,2.298380435E-2,4.031710699E-2,2.474004216E-2
1.955935710E1,1.382082608E-2,4.581489414E-2,3.268129006E-2
1.956935710E1,1.198823005E-2,4.398229718E-2,4.062253982E-2
1.957935710E1,2.214386594E-3,5.070181563E-2,4.734205827E-2
1.958935710E1,1.076649968E-2,5.497787148E-2,5.467243865E-2
1.959935710E1,1.992947794E-2,6.108652428E-2,5.589416996E-2
1.960935683E1,1.870774850E-2,7.635815442E-2,5.833763257E-2
1.961935683E1,2.481640130E-2,9.040805697E-2,5.650503561E-2
1.962935683E1,3.092505224E-2,9.896016866E-2,5.650503561E-2
1.963935683E1,4.069889709E-2,1.062905490E-1,5.467243865E-2
1.964935683E1,5.597052723E-2,1.154535338E-1,5.467243865E-2
1.965935683E1,6.635523587E-2,1.240056455E-1,5.283984542E-2
1.966935683E1,8.773551881E-2,1.270599663E-1,4.978551716E-2
1.967935683E1,1.030071527E-1,1.325577646E-1,5.222897977E-2
1.968935683E1,1.109483987E-1,1.374446750E-1,5.528330430E-2
1.969935713E1,1.249983013E-1,1.307251602E-1,6.200282276E-2
1.970935713E1,1.390482038E-1,1.215621829E-1,6.627888232E-2
1.971935713E1,1.476003081E-1,1.178969890E-1,6.627888232E-2
1.972935713E1,1.616502106E-1,1.148426682E-1,6.505715102E-2
1.973935713E1,1.744783819E-1,1.215621829E-1,5.650503561E-2
1.974935686E1,1.781435758E-1,1.331686229E-1,4.917465150E-2
1.975935686E1,1.805870384E-1,1.453859210E-1,4.123340547E-2
1.976935686E1,1.750892550E-1,1.459967941E-1,4.001167417E-2
1.977935686E1,1.708131880E-1,1.417207420E-1,4.245513305E-2
1.978935686E1,1.579850167E-1,1.478293836E-1,4.489859566E-2
1.979935686E1,1.463785917E-1,1.527163088E-1,4.856378585E-2
1.980935713E1,1.439351290E-1,1.557706445E-1,5.406157300E-2
1.981935713E1,1.445459872E-1,1.612684280E-1,5.345070735E-2
1.982935713E1,1.488220394E-1,1.521054506E-1,5.406157300E-2
