"Time (s)","Acceleration x (m/s^2)","Acceleration y (m/s^2)","Acceleration z (m/s^2)"
8.304324000E-3,2.440500110E-1,-8.998950005E0,-7.950000167E-1
1.838925100E-2,4.650000334E-1,-9.658950806E0,1.153050065E0
2.847159600E-2,-1.570500135E-1,-8.911950111E0,1.627050042E0
3.855629800E-2,-2.479500175E-1,-8.914950371E0,6.790500283E-1
4.864122100E-2,-1.930500120E-1,-9.520950317E0,1.429500133E-1
5.872637500E-2,-3.705000132E-2,-9.571050644E0,-8.805000782E-2
6.881109600E-2,2.280000150E-1,-9.516000748E0,-1.579500139E-1
7.889600000E-2,2.370000184E-1,-9.537000656E0,-1.695000008E-2
8.898090800E-2,9.105000645E-2,-9.487050056E0,2.860500216E-1
9.906583600E-2,-8.505000174E-2,-9.439050674E0,5.620500445E-1
1.091507540E-1,-1.450500041E-1,-9.457950592E0,5.430000424E-1
1.192356770E-1,-1.450500041E-1,-9.588000298E0,2.959500253E-1
1.293206150E-1,-5.595000088E-2,-9.868050575E0,5.400000140E-2
1.394055390E-1,-1.540500075E-1,-9.934950829E0,-7.050000131E-3
1.494904520E-1,-2.639999986E-1,-1.006905079E1,-1.319999993E-1
1.595754040E-1,-2.380500138E-1,-1.009500027E1,-2.059500068E-1
1.696603410E-1,-1.969500035E-1,-1.016895008E1,-5.295000225E-2
1.797451890E-1,-2.449500114E-1,-1.018095016E1,1.399500072E-1
1.898301680E-1,-2.449500114E-1,-1.032300091E1,2.290500104E-1
1.999151030E-1,-9.705000371E-2,-1.036605072E1,3.679500222E-1
2.100000260E-1,-1.060500070E-1,-1.022400093E1,5.710500479E-1
2.200849730E-1,7.050000131E-3,-1.025595093E1,6.259500384E-1
2.301698860E-1,4.099500179E-1,-1.018095016E1,4.590000212E-1
2.402548190E-1,3.550500274E-1,-1.005000019E1,3.769500256E-1
2.503397270E-1,-9.000000358E-2,-9.801000595E0,7.249500155E-1
2.604245740E-1,-1.180500090E-1,-9.475050926E0,8.730000257E-1
2.705095100E-1,-2.140500098E-1,-9.078000069E0,6.120000482E-1
2.805944470E-1,3.190500140E-1,-9.418050766E0,6.259500384E-1
2.906793600E-1,4.800000042E-2,-9.370050430E0,-2.400000021E-2
3.007642780E-1,1.390500069E-1,-9.114000320E0,7.095000148E-2
3.108492160E-1,2.419500053E-1,-9.328950882E0,2.629500031E-1
3.209341100E-1,-6.599999964E-2,-9.640050888E0,1.810500026E-1
3.310190390E-1,-2.089500129E-1,-9.634950638E0,1.450500041E-1
3.411039630E-1,-5.020500422E-1,-9.742950439E0,4.695000127E-2
3.511888870E-1,-7.630500197E-1,-9.741000175E0,1.800000109E-2
3.612738340E-1,-8.820000291E-1,-9.396000862E0,1.789500117E-1
3.713587570E-1,-8.080500364E-1,-9.228000641E0,3.940500319E-1
3.814436800E-1,-4.390500188E-1,-9.327000618E0,3.820500076E-1
3.915283720E-1,-2.310000062E-1,-9.396000862E0,5.380499959E-1
4.016132690E-1,4.095000029E-2,-9.769950867E0,-3.229500055E-1
4.116984370E-1,1.249500066E-1,-1.001100063E1,2.190000117E-1
4.217833430E-1,2.610000074E-1,-1.013100052E1,2.070000172E-1
4.318680170E-1,3.760500252E-1,-1.016700077E1,1.330500096E-1
4.419531490E-1,3.400500119E-1,-1.014105034E1,1.800000109E-2
4.520378430E-1,3.280500174E-1,-9.963000298E0,3.705000132E-2
4.621227690E-1,3.550500274E-1,-9.858000755E0,2.100000158E-2
4.722077020E-1,2.490000129E-1,-9.922950745E0,1.800000109E-2
4.822926100E-1,1.540500075E-1,-9.793950081E0,9.705000371E-2
4.923775330E-1,1.249500066E-1,-9.657000542E0,9.000000358E-2
5.024624570E-1,1.680000126E-1,-9.625950813E0,1.069500074E-1
5.125473800E-1,2.250000089E-1,-9.645000458E0,1.330500096E-1
5.226322430E-1,3.139500022E-1,-9.561000824E0,5.700000376E-2
5.327171490E-1,3.349500299E-1,-9.465000153E0,2.805000171E-2
5.428021540E-1,3.090000153E-1,-9.499050140E0,-1.695000008E-2
5.528870740E-1,2.299500108E-1,-9.588000298E0,6.000000052E-3
5.629719730E-1,1.180500090E-1,-9.673950195E0,6.900000572E-2
5.730568040E-1,1.249500066E-1,-9.754950523E0,9.705000371E-2
5.831417440E-1,1.680000126E-1,-9.822000504E0,3.299999982E-2
5.932266470E-1,2.230500132E-1,-9.813000679E0,-3.299999982E-2
6.033115760E-1,3.469500244E-1,-9.769950867E0,-3.600000218E-2
6.133965230E-1,4.740000367E-1,-9.745950699E0,-2.595000155E-2
6.234814460E-1,5.869500041E-1,-9.745950699E0,-6.405000389E-2
6.335663690E-1,5.730000138E-1,-9.736050606E0,-6.405000389E-2
6.436512870E-1,5.629500151E-1,-9.781949997E0,-5.700000376E-2
6.537359860E-1,5.890500546E-1,-9.796050072E0,-7.200000435E-2
6.638208880E-1,5.530500412E-1,-9.774000168E0,-7.200000435E-2
6.739060710E-1,5.460000038E-1,-9.808050156E0,-3.299999982E-2
6.839907420E-1,5.680500269E-1,-9.858000755E0,-1.905000024E-2
6.940756630E-1,5.940000415E-1,-9.880050659E0,4.500000179E-2
7.041605860E-1,6.280500293E-1,-9.918000221E0,9.300000221E-2
7.142455180E-1,8.170500398E-1,-9.898950577E0,1.620000005E-1
7.243304360E-1,1.012950063E0,-9.882000923E0,2.479500175E-1
7.344153740E-1,1.153950095E0,-9.789000511E0,2.149500102E-1
7.445002420E-1,1.087050080E0,-9.682950020E0,1.789500117E-1
7.545852400E-1,1.030050039E0,-9.661950111E0,2.119500041E-1
7.646701790E-1,9.220500588E-1,-9.633000374E0,2.980500162E-1
7.747550450E-1,8.100000620E-1,-9.571050644E0,3.580500185E-1
7.848399570E-1,6.400500536E-1,-9.516000748E0,4.060500264E-1
7.949248800E-1,4.669500291E-1,-9.523050308E0,4.680000246E-1
8.050098030E-1,3.240000010E-1,-9.513000488E0,5.590500236E-1
8.150947350E-1,2.560500205E-1,-9.499050140E0,6.000000238E-1
8.251796680E-1,2.130000144E-1,-9.477000237E0,5.430000424E-1
8.352643810E-1,1.080000028E-1,-9.460950851E0,4.399500191E-1
8.453492790E-1,1.459500045E-1,-9.525000572E0,3.700500131E-1
8.554342260E-1,3.280500174E-1,-9.607050896E0,3.730500042E-1
8.655191590E-1,4.699500203E-1,-9.613950729E0,3.100500107E-1
8.756039920E-1,5.989500284E-1,-9.717000008E0,1.639500111E-1
8.856889950E-1,7.399500608E-1,-9.829050064E0,-3.600000218E-2
8.957739250E-1,7.710000277E-1,-9.913050652E0,-2.110500038E-1
9.058588530E-1,7.140000463E-1,-9.961050034E0,-2.989500165E-1
9.159436990E-1,5.680500269E-1,-9.942000389E0,-4.399500191E-1
9.260286200E-1,3.499500155E-1,-9.886950493E0,-5.340000391E-1
9.361135440E-1,2.329500169E-1,-9.810000420E0,-4.360500276E-1
9.461984670E-1,9.600000083E-2,-9.849000931E0,-3.730500042E-1
9.562833940E-1,-3.495000303E-2,-9.861000061E0,-2.490000129E-1
9.663683170E-1,-1.180500090E-1,-9.766950607E0,-1.630500108E-1
9.764530110E-1,-1.420500129E-1,-9.714000702E0,-6.900000572E-2
9.865381590E-1,-1.260000020E-1,-9.729000092E0,-2.100000158E-2
9.966228330E-1,-1.039500013E-1,-9.691050529E0,-1.905000024E-2
1.006707764E0,-1.780500114E-1,-9.613950729E0,-6.705000252E-2
1.016792678E0,-3.439500034E-1,-9.552000046E0,-1.050000042E-1
1.026877601E0,-4.969500303E-1,-9.517950058E0,-1.290000081E-1
1.036962539E0,-6.240000129E-1,-9.537000656E0,-2.340000123E-1
1.047047452E0,-6.810000539E-1,-9.585000038E0,-3.330000043E-1
1.057132300E0,-6.859500408E-1,-9.601950645E0,-4.240500331E-1
1.067217235E0,-6.810000539E-1,-9.634950638E0,-5.430000424E-1
1.077302163E0,-6.670500040E-1,-9.691050529E0,-6.130500436E-1
1.087387067E0,-6.090000272E-1,-9.724050522E0,-6.420000196E-1
1.097471990E0,-4.489500225E-1,-9.721950531E0,-6.130500436E-1
1.107556914E0,-2.599500120E-1,-9.738000870E0,-5.460000038E-1
1.117641842E0,-3.705000132E-2,-9.805050850E0,-5.149500370E-1
1.127726536E0,-6.000000052E-3,-9.865050316E0,-5.269500017E-1
1.137811452E0,-1.279500127E-1,-9.907950401E0,-5.670000315E-1
1.147896375E0,-2.599500120E-1,-9.946950912E0,-6.610500216E-1
1.157981269E0,-2.689500153E-1,-1.001400089E1,-6.180000305E-1
1.168066173E0,-2.670000196E-1,-1.004505062E1,-5.410500169E-1
1.178151026E0,-2.359500080E-1,-1.005000019E1,-4.189500213E-1
1.188235947E0,-3.000000119E-2,-1.001595020E1,-3.330000043E-1
1.198320866E0,1.560000032E-1,-9.918000221E0,-3.900000155E-1
1.208405789E0,2.470500171E-1,-9.694950104E0,-4.830000103E-1
1.218490702E0,3.910500109E-1,-9.513000488E0,-4.950000346E-1
1.228575615E0,5.080500245E-1,-9.517950058E0,-4.740000367E-1
1.238660543E0,5.610000491E-1,-9.613950729E0,-5.239500403E-1
1.248745452E0,4.050000310E-1,-9.633000374E0,-5.839500427E-1
1.258830375E0,2.520000041E-1,-9.631050110E0,-5.860500336E-1
1.268915055E0,1.390500069E-1,-9.643050194E0,-5.430000424E-1
1.278999986E0,4.605000094E-2,-9.753000259E0,-5.100000501E-1
1.289084899E0,-7.995000482E-2,-9.790950775E0,-4.690500200E-1
1.299169812E0,-2.260500044E-1,-9.748050690E0,-4.380000234E-1
1.309254735E0,-2.569500208E-1,-9.718950272E0,-4.380000234E-1
1.319339654E0,-1.999500096E-1,-9.714000702E0,-4.480500221E-1
1.329424497E0,-1.180500090E-1,-9.685950279E0,-4.360500276E-1
1.339509418E0,-8.700000495E-2,-9.667050362E0,-4.309500158E-1
1.349594346E0,-1.230000034E-1,-9.664050102E0,-4.039500058E-1
1.359679050E0,-1.620000005E-1,-9.646950722E0,-3.400500119E-1
1.369763976E0,-1.690500081E-1,-9.604050636E0,-3.250500262E-1
1.379848889E0,-1.469999999E-1,-9.691050529E0,-3.540000021E-1
1.389933817E0,-1.519500017E-1,-9.742950439E0,-4.639500082E-1
1.400018740E0,-1.350000054E-1,-9.796050072E0,-5.629500151E-1
1.410103668E0,-7.304999977E-2,-9.850950241E0,-5.980500579E-1
1.420188517E0,3.600000218E-2,-9.889050484E0,-6.370500326E-1
1.430273419E0,1.699500084E-1,-9.928050041E0,-7.180500627E-1
1.440358342E0,1.819500029E-1,-9.918000221E0,-7.759500146E-1
1.450443269E0,8.400000632E-2,-9.930000305E0,-7.680000067E-1
1.460528202E0,-5.100000277E-2,-9.973050117E0,-7.230000496E-1
1.470613115E0,-1.590000093E-1,-1.000695038E1,-6.319500208E-1
1.480697809E0,-2.260500044E-1,-9.946950912E0,-5.359500051E-1
1.490782731E0,-2.170500159E-1,-9.868050575E0,-4.519500136E-1
1.500867654E0,-1.810500026E-1,-9.790950775E0,-4.069500268E-1
1.510952582E0,-2.380500138E-1,-9.625950813E0,-3.709500134E-1
1.521037485E0,-2.959500253E-1,-9.465000153E0,-3.400500119E-1
1.531122323E0,-2.860500216E-1,-9.442049980E0,-3.400500119E-1
1.541207244E0,-1.810500026E-1,-9.516000748E0,-3.400500119E-1
1.551292167E0,-1.620000005E-1,-9.576000214E0,-3.450000286E-1
1.561377095E0,-1.300500035E-1,-9.540000916E0,-3.330000043E-1
1.571462027E0,-6.300000101E-2,-9.513000488E0,-3.570000231E-1
1.581546975E0,-3.495000303E-2,-9.565950394E0,-3.949500322E-1
1.591631898E0,1.200000010E-2,-9.646950722E0,-4.039500058E-1
1.601716841E0,5.505000427E-2,-9.694950104E0,-4.210500121E-1
1.611801530E0,3.900000080E-2,-9.789000511E0,-4.860000312E-1
1.621886470E0,-4.695000127E-2,-9.825000763E0,-5.340000391E-1
1.631971393E0,-1.639500111E-1,-9.829050064E0,-4.999500215E-1
1.642056321E0,-2.430000156E-1,-9.892050743E0,-5.220000148E-1
1.652141155E0,-2.860500216E-1,-9.895950317E0,-4.830000103E-1
1.662226057E0,-3.600000143E-1,-9.826950073E0,-4.330500066E-1
1.672310975E0,-3.199500144E-1,-9.726000786E0,-4.279500246E-1
1.682395898E0,-2.599500120E-1,-9.664050102E0,-4.140000343E-1
1.692480826E0,-2.449500114E-1,-9.657000542E0,-3.880500197E-1
1.702565525E0,-2.569500208E-1,-9.669000626E0,-4.020000100E-1
1.712650451E0,-3.169500232E-1,-9.673950195E0,-4.120500088E-1
1.722735388E0,-3.319500089E-1,-9.700050354E0,-4.330500066E-1
1.732820326E0,-3.270000219E-1,-9.729000092E0,-4.789500237E-1
1.742905174E0,-2.740500271E-1,-9.796050072E0,-5.670000315E-1
1.752990086E0,-2.170500159E-1,-9.913050652E0,-6.370500326E-1
1.763075009E0,-2.070000172E-1,-9.979950905E0,-6.390000582E-1
1.773159932E0,-1.020000055E-1,-9.949050903E0,-5.860500336E-1
1.783244845E0,-1.995000057E-2,-9.861000061E0,-5.550000072E-1
1.793329782E0,3.600000218E-2,-9.796050072E0,-5.410500169E-1
1.803414468E0,9.600000083E-2,-9.762000084E0,-5.430000424E-1
1.813499393E0,1.390500069E-1,-9.753000259E0,-5.029500127E-1
1.823584331E0,1.630500108E-1,-9.726000786E0,-4.980000257E-1
1.833669188E0,1.249500066E-1,-9.667050362E0,-4.789500237E-1
1.843754100E0,1.150500029E-1,-9.625950813E0,-4.720500112E-1
1.853839018E0,1.030500084E-1,-9.652050018E0,-4.639500082E-1
1.863923941E0,1.129500046E-1,-9.670950890E0,-4.830000103E-1
1.874008864E0,9.795000404E-2,-9.745950699E0,-4.999500215E-1
1.884093564E0,6.000000238E-2,-9.781949997E0,-5.119500160E-1
1.894178485E0,5.295000225E-2,-9.814950943E0,-5.119500160E-1
1.904263422E0,5.295000225E-2,-9.829050064E0,-4.690500200E-1
1.914348345E0,6.495000422E-2,-9.825000763E0,-4.260000288E-1
1.924433239E0,5.295000225E-2,-9.822000504E0,-4.720500112E-1
1.934518167E0,5.100000277E-2,-9.838950157E0,-5.239500403E-1
1.944603005E0,7.695000619E-2,-9.817050934E0,-5.890500546E-1
1.954687927E0,1.390500069E-1,-9.742950439E0,-6.079500318E-1
1.964772846E0,1.339500099E-1,-9.676050186E0,-5.629500151E-1
1.974857526E0,6.705000252E-2,-9.664050102E0,-5.310000181E-1
1.984942437E0,-4.395000264E-2,-9.655050278E0,-4.980000257E-1
1.995027360E0,-1.180500090E-1,-9.637950897E0,-5.029500127E-1
2.005112269E0,-1.879500151E-1,-9.646950722E0,-4.810500145E-1
2.015197187E0,-2.670000196E-1,-9.634950638E0,-4.450500309E-1
2.025282110E0,-3.120000064E-1,-9.634950638E0,-4.039500058E-1
2.035366973E0,-3.120000064E-1,-9.624000549E0,-4.020000100E-1
2.045451665E0,-2.550000250E-1,-9.621000290E0,-4.309500158E-1
2.055536808E0,-1.780500114E-1,-9.682950020E0,-4.620000124E-1
2.065621502E0,-1.710000038E-1,-9.790950775E0,-5.269500017E-1
2.075706428E0,-1.830000132E-1,-9.826950073E0,-5.220000148E-1
2.085791276E0,-2.329500169E-1,-9.790950775E0,-4.830000103E-1
2.095876198E0,-2.190000117E-1,-9.801000595E0,-4.309500158E-1
2.105961121E0,-1.969500035E-1,-9.820050240E0,-4.399500191E-1
2.116046034E0,-2.790000141E-1,-9.748050690E0,-5.269500017E-1
2.126130946E0,-3.600000143E-1,-9.634950638E0,-6.079500318E-1
2.136215860E0,-3.199500144E-1,-9.565950394E0,-5.740500093E-1
2.146300554E0,-1.570500135E-1,-9.583050728E0,-5.050500035E-1
2.156385489E0,-1.995000057E-2,-9.691050529E0,-4.639500082E-1
2.166470417E0,5.505000427E-2,-9.778950691E0,-4.690500200E-1
2.176555271E0,8.400000632E-2,-9.724050522E0,-5.310000181E-1
2.186640187E0,1.459500045E-1,-9.624000549E0,-5.670000315E-1
2.196725115E0,2.130000144E-1,-9.670950890E0,-5.170500278E-1
2.206809818E0,2.850000262E-1,-9.802950859E0,-4.909500182E-1
2.216894754E0,3.040500283E-1,-9.918000221E0,-5.269500017E-1
2.226979677E0,2.209500074E-1,-1.000200081E1,-5.910000205E-1
2.237064525E0,1.339500099E-1,-1.001895046E1,-6.649500132E-1
2.247149446E0,6.300000101E-2,-9.949050903E0,-6.750000119E-1
2.257234370E0,3.405000269E-2,-9.846000671E0,-6.820500493E-1
2.267319297E0,3.600000218E-2,-9.781949997E0,-6.799500585E-1
2.277404220E0,1.500000060E-2,-9.706950188E0,-6.150000095E-1
2.287488909E0,-3.000000119E-2,-9.621000290E0,-5.460000038E-1
2.297573854E0,3.105000220E-2,-9.604050636E0,-4.600500166E-1
2.307658793E0,8.595000207E-2,-9.658950806E0,-4.279500246E-1
2.317743637E0,6.705000252E-2,-9.714000702E0,-4.189500213E-1
2.327828544E0,0.000000000E0,-9.724050522E0,-4.500000179E-1
2.337913471E0,-9.900000691E-2,-9.730950356E0,-4.789500237E-1
2.347998394E0,-2.119500041E-1,-9.748050690E0,-4.999500215E-1
2.358083083E0,-3.079500198E-1,-9.808050156E0,-5.269500017E-1
2.368168014E0,-3.220500052E-1,-9.841050148E0,-5.119500160E-1
2.378252933E0,-3.319500089E-1,-9.837000847E0,-5.340000391E-1
2.388337791E0,-2.740500271E-1,-9.798000336E0,-5.359500051E-1
2.398422688E0,-2.170500159E-1,-9.705000877E0,-5.340000391E-1
2.408507611E0,-1.519500017E-1,-9.595050812E0,-4.830000103E-1
2.418592305E0,-7.095000148E-2,-9.612000465E0,-4.360500276E-1
2.428677197E0,-3.000000119E-2,-9.577950478E0,-3.949500322E-1
2.438762134E0,2.895000204E-2,-9.607050896E0,-3.780000210E-1
2.448846983E0,1.695000008E-2,-9.661950111E0,-4.279500246E-1
2.458931996E0,-6.300000101E-2,-9.682950020E0,-5.239500403E-1
2.469016839E0,-1.500000060E-1,-9.657000542E0,-5.670000315E-1
2.479101745E0,-1.780500114E-1,-9.705000877E0,-6.220500469E-1
2.489186449E0,-2.209500074E-1,-9.832050323E0,-6.529500484E-1
2.499271283E0,-2.880000174E-1,-9.937050819E0,-5.910000205E-1
2.509356207E0,-3.409500122E-1,-9.930000305E0,-4.879500270E-1
2.519441149E0,-3.580500185E-1,-9.826950073E0,-4.090500176E-1
2.529526058E0,-3.049500287E-1,-9.697950363E0,-3.970500231E-1
2.539610752E0,-2.239500135E-1,-9.682950020E0,-4.039500058E-1
2.549695673E0,-1.930500120E-1,-9.762000084E0,-5.029500127E-1
2.559780577E0,-1.639500111E-1,-9.750000000E0,-5.269500017E-1
2.569865425E0,-9.495000541E-2,-9.661950111E0,-4.980000257E-1
2.579950356E0,-5.895000324E-2,-9.637950897E0,-5.029500127E-1
2.590035294E0,-4.395000264E-2,-9.492000580E0,-4.950000346E-1
2.600119973E0,4.305000231E-2,-9.661950111E0,-4.690500200E-1
2.610204889E0,2.400000021E-2,-9.895950317E0,-4.999500215E-1
2.620289737E0,-4.695000127E-2,-9.991950035E0,-6.150000095E-1
2.630374673E0,1.005000062E-2,-9.994950294E0,-6.420000196E-1
2.640459586E0,4.095000029E-2,-9.970950127E0,-6.220500469E-1
2.650544481E0,5.100000277E-2,-9.946950912E0,-6.079500318E-1
2.660629195E0,7.200000435E-2,-9.982950211E0,-5.290500522E-1
2.670714120E0,5.295000225E-2,-9.925050735E0,-4.159500301E-1
2.680799013E0,-4.050000105E-3,-9.841050148E0,-3.490500152E-1
2.690883861E0,-6.000000052E-3,-9.778950691E0,-3.109500110E-1
2.700968579E0,7.695000619E-2,-9.693000793E0,-2.230500132E-1
2.711053495E0,1.319999993E-1,-9.645000458E0,-1.909500062E-1
2.721138427E0,9.105000645E-2,-9.631050110E0,-2.080500126E-1
2.731223369E0,7.695000619E-2,-9.628050804E0,-2.440500110E-1
2.741308217E0,7.005000114E-2,-9.621000290E0,-3.210000098E-1
2.751392924E0,-1.800000109E-2,-9.589950562E0,-3.780000210E-1
2.761477860E0,-9.705000371E-2,-9.559050560E0,-3.640500307E-1
2.771562759E0,-8.505000174E-2,-9.505950928E0,-2.509500086E-1
2.781647592E0,-4.395000264E-2,-9.468000412E0,-1.669500023E-1
2.791732518E0,-5.400000140E-2,-9.528000832E0,-2.299500108E-1
2.801817446E0,-7.995000482E-2,-9.637950897E0,-3.400500119E-1
2.811902369E0,-1.039500013E-1,-9.781949997E0,-3.949500322E-1
2.821987292E0,-2.140500098E-1,-9.834000587E0,-4.240500331E-1
2.832071910E0,-2.530499995E-1,-9.882000923E0,-4.039500058E-1
2.842156816E0,-2.070000172E-1,-9.895950317E0,-3.490500152E-1
2.852241739E0,-1.710000038E-1,-9.882000923E0,-2.800500095E-1
2.862326658E0,-1.230000034E-1,-9.856050491E0,-2.800500095E-1
2.872411381E0,-4.395000264E-2,-9.868050575E0,-3.420000076E-1
2.882496302E0,-1.095000096E-2,-9.910950661E0,-4.360500276E-1
2.892581137E0,-5.400000140E-2,-9.942000389E0,-4.909500182E-1
2.902666044E0,-2.070000172E-1,-9.907950401E0,-5.239500403E-1
2.912750738E0,-2.760000229E-1,-9.838950157E0,-4.830000103E-1
2.922835659E0,-2.790000141E-1,-9.760050774E0,-4.549500346E-1
2.932920572E0,-2.550000250E-1,-9.717000008E0,-4.360500276E-1
2.943005406E0,-2.620500028E-1,-9.691050529E0,-4.309500158E-1
2.953090099E0,-2.530499995E-1,-9.664050102E0,-4.039500058E-1
2.963175048E0,-1.500000060E-1,-9.609000206E0,-3.640500307E-1
2.973259976E0,-5.595000088E-2,-9.559050560E0,-2.970000207E-1
2.983344824E0,-4.200000316E-2,-9.559050560E0,-2.320500165E-1
2.993429760E0,1.905000024E-2,-9.585000038E0,-1.669500023E-1
3.003514668E0,7.005000114E-2,-9.652050018E0,-1.669500023E-1
3.013599358E0,1.249500066E-1,-9.697950363E0,-2.130000144E-1
3.023684279E0,1.819500029E-1,-9.766950607E0,-2.749500275E-1
3.033769212E0,2.400000095E-1,-9.853050232E0,-3.589500189E-1
3.043854055E0,3.349500299E-1,-9.922950745E0,-3.829500079E-1
3.053938967E0,3.829500079E-1,-9.937050819E0,-4.039500058E-1
3.064023646E0,4.600500166E-1,-9.967950821E0,-4.330500066E-1
3.074108562E0,4.530000091E-1,-9.961050034E0,-4.600500166E-1
3.084193486E0,4.099500179E-1,-9.955950737E0,-4.620000124E-1
3.094278320E0,3.760500252E-1,-9.978000641E0,-4.620000124E-1
3.104363012E0,3.090000153E-1,-9.928050041E0,-4.069500268E-1
3.114447923E0,2.160000056E-1,-9.873000145E0,-3.490500152E-1
3.124532776E0,1.609500051E-1,-9.858000755E0,-3.040500283E-1
3.134617697E0,1.129500046E-1,-9.874950409E0,-2.899500132E-1
3.144702601E0,5.805000290E-2,-9.813000679E0,-2.869500220E-1
3.154787291E0,2.205000073E-2,-9.760050774E0,-3.109500110E-1
3.164872120E0,1.905000024E-2,-9.730950356E0,-3.400500119E-1
3.174957048E0,-5.100000277E-2,-9.657000542E0,-3.139500022E-1
3.185041985E0,-1.540500075E-1,-9.552000046E0,-2.800500095E-1
3.195126680E0,-1.759500057E-1,-9.493950844E0,-1.990500093E-1
3.205211606E0,-1.399500072E-1,-9.508950233E0,-1.939500123E-1
3.215296463E0,-1.500000060E-1,-9.540000916E0,-2.580000162E-1
3.225381413E0,-1.110000089E-1,-9.592050552E0,-3.109500110E-1
3.235466112E0,-6.300000101E-2,-9.664050102E0,-3.829500079E-1
3.245551048E0,-3.000000119E-2,-9.718950272E0,-4.570500255E-1
3.255635901E0,-1.095000096E-2,-9.796050072E0,-5.149500370E-1
3.265720832E0,1.005000062E-2,-9.870000839E0,-5.460000038E-1
3.275805521E0,7.050000131E-3,-9.918000221E0,-4.999500215E-1
3.285890442E0,2.700000070E-2,-9.930000305E0,-4.620000124E-1
3.295975285E0,5.505000427E-2,-9.898950577E0,-4.429500103E-1
3.306060206E0,6.495000422E-2,-9.858000755E0,-4.740000367E-1
3.316144921E0,8.400000632E-2,-9.765000343E0,-5.530500412E-1
3.326229856E0,5.295000225E-2,-9.705000877E0,-5.860500336E-1
3.336314803E0,-4.695000127E-2,-9.661950111E0,-5.910000205E-1
3.346399651E0,-1.399500072E-1,-9.604050636E0,-6.100500226E-1
3.356484353E0,-1.639500111E-1,-9.541950226E0,-5.719500184E-1
3.366569188E0,-1.639500111E-1,-9.499050140E0,-4.980000257E-1
3.376654111E0,-2.310000062E-1,-9.484950066E0,-4.140000343E-1
3.386739024E0,-2.260500044E-1,-9.529950142E0,-4.039500058E-1
3.396823709E0,-2.119500041E-1,-9.568050385E0,-4.450500309E-1
3.406908562E0,-1.639500111E-1,-9.631050110E0,-5.050500035E-1
3.416993485E0,-1.350000054E-1,-9.679050446E0,-5.509500504E-1
3.427078394E0,-1.350000054E-1,-9.748050690E0,-5.290500522E-1
3.437163083E0,-2.050500065E-1,-9.820050240E0,-5.290500522E-1
3.447247922E0,-2.670000196E-1,-9.837000847E0,-5.460000038E-1
3.457332850E0,4.950000439E-3,-1.005405045E1,-5.410500169E-1
3.467417778E0,-1.330500096E-1,-9.846000671E0,-4.309500158E-1
3.477502463E0,2.400000021E-2,-9.837000847E0,-5.359500051E-1
3.487587384E0,6.495000422E-2,-9.975000381E0,-5.959500074E-1
3.497672218E0,3.105000220E-2,-9.975000381E0,-4.690500200E-1
3.507757139E0,-7.950000465E-3,-9.865050316E0,-3.970500231E-1
3.517841819E0,-4.695000127E-2,-9.748050690E0,-4.549500346E-1
3.527926735E0,-1.039500013E-1,-9.709950447E0,-4.860000312E-1
3.538011584E0,-1.690500081E-1,-9.624000549E0,-4.570500255E-1
3.548096505E0,-1.230000034E-1,-9.469950676E0,-4.600500166E-1
3.558181194E0,-3.705000132E-2,-9.484950066E0,-3.520500064E-1
3.568266053E0,1.200000010E-2,-9.439050674E0,-1.890000105E-1
3.578350986E0,1.489500105E-1,-9.396000862E0,-1.000500023E-1
3.588435681E0,2.370000184E-1,-9.525000572E0,-1.200000048E-1
3.598520606E0,2.520000041E-1,-9.688050270E0,-2.539499998E-1
3.608605514E0,3.430500031E-1,-9.798000336E0,-3.520500064E-1
3.618690141E0,2.539499998E-1,-9.898950577E0,-3.349500299E-1
3.628775057E0,1.540500075E-1,-9.970950127E0,-3.090000153E-1
3.638859980E0,1.969500035E-1,-1.000905037E1,-2.939999998E-1
3.648944829E0,3.280500174E-1,-1.003500080E1,-2.779500186E-1
3.659029750E0,4.050000310E-1,-1.003800011E1,-1.789500117E-1
3.669114444E0,3.550500274E-1,-9.975000381E0,-1.099500060E-1
3.679199365E0,3.000000119E-1,-9.913050652E0,-8.400000632E-2
3.689284198E0,2.490000129E-1,-9.882000923E0,-1.905000024E-2
3.699369119E0,1.609500051E-1,-9.889050484E0,1.395000052E-2
3.709453732E0,1.060500070E-1,-9.913050652E0,-9.000000544E-3
3.719538653E0,1.390500069E-1,-9.946950912E0,-1.030500084E-1
3.729623586E0,1.699500084E-1,-9.943950653E0,-2.460000068E-1
3.739708509E0,2.040000111E-1,-9.846000671E0,-3.139500022E-1
3.749793117E0,1.870500147E-1,-9.748050690E0,-3.109500110E-1
3.759878028E0,1.270500124E-1,-9.640050888E0,-1.939500123E-1
3.769962722E0,9.105000645E-2,-9.529950142E0,-9.105000645E-2
3.780047643E0,8.895000070E-2,-9.420000076E0,-3.795000166E-2
3.790132477E0,3.600000218E-2,-9.433950424E0,4.050000105E-3
3.800217398E0,2.700000070E-2,-9.477000237E0,-2.400000021E-2
3.810302093E0,4.950000439E-3,-9.532950401E0,-6.705000252E-2
3.820386917E0,-4.905000329E-2,-9.595050812E0,-1.200000048E-1
3.830471869E0,-5.595000088E-2,-9.730950356E0,-9.300000221E-2
3.840556563E0,-3.195000067E-2,-9.832050323E0,-9.600000083E-2
3.850641407E0,-7.500000298E-2,-9.940050125E0,-1.990500093E-1
3.860726341E0,-4.200000316E-2,-1.009005070E1,-3.090000153E-1
3.870811025E0,8.205000311E-2,-1.022895050E1,-3.520500064E-1
3.880895961E0,8.595000207E-2,-1.020795059E1,-4.069500268E-1
3.890980794E0,2.205000073E-2,-1.009305000E1,-4.189500213E-1
3.901065482E0,-4.395000264E-2,-9.922950745E0,-4.120500088E-1
3.911150394E0,-4.905000329E-2,-9.841050148E0,-3.780000210E-1
3.921235266E0,3.000000026E-3,-9.790950775E0,-3.180000186E-1
3.931320206E0,-2.700000070E-2,-9.634950638E0,-2.920500040E-1
3.941404900E0,-4.200000316E-2,-9.513000488E0,-2.700000107E-1
3.951489734E0,2.205000073E-2,-9.481950760E0,-2.700000107E-1
3.961574429E0,7.200000435E-2,-9.496950150E0,-2.419500053E-1
3.971659366E0,6.000000238E-2,-9.549000740E0,-2.340000123E-1
3.981744218E0,3.105000220E-2,-9.577950478E0,-2.269500047E-1
3.991829120E0,-1.500000060E-2,-9.604050636E0,-2.110500038E-1
4.001913814E0,-9.195000678E-2,-9.673950195E0,-2.389500141E-1
4.011998736E0,-1.110000089E-1,-9.742950439E0,-3.019500077E-1
4.022083339E0,-1.180500090E-1,-9.817050934E0,-3.450000286E-1
4.032168260E0,-1.210500076E-1,-9.910950661E0,-4.120500088E-1
4.042253101E0,-1.230000034E-1,-9.952050209E0,-4.669500291E-1
4.052338024E0,-1.469999999E-1,-9.973050117E0,-4.789500237E-1
4.062422723E0,-1.450500041E-1,-9.895950317E0,-4.570500255E-1
4.072507572E0,-1.210500076E-1,-9.805050850E0,-4.140000343E-1
4.082592495E0,-1.399500072E-1,-9.718950272E0,-3.490500152E-1
4.092677175E0,-1.279500127E-1,-9.613950729E0,-2.820000052E-1
4.102762009E0,-4.905000329E-2,-9.559050560E0,-2.179500163E-1
4.112846919E0,-7.950000465E-3,-9.609000206E0,-2.179500163E-1
4.122931622E0,7.050000131E-3,-9.657000542E0,-2.899500132E-1
4.133016539E0,1.500000060E-2,-9.670950890E0,-3.589500189E-1
4.143101387E0,1.339500099E-1,-9.685950279E0,-3.690000176E-1
4.153186084E0,1.699500084E-1,-9.667050362E0,-3.540000021E-1
4.163270928E0,1.819500029E-1,-9.706950188E0,-3.930000067E-1
4.173355622E0,2.440500110E-1,-9.825000763E0,-4.380000234E-1
4.183440534E0,4.000500143E-1,-9.910950661E0,-4.210500121E-1
4.193525382E0,4.140000343E-1,-9.943950653E0,-4.380000234E-1
4.203610312E0,3.240000010E-1,-9.978000641E0,-4.549500346E-1
4.213695026E0,1.800000072E-1,-9.973050117E0,-4.740000367E-1
4.223779870E0,1.080000028E-1,-9.922950745E0,-4.930500090E-1
4.233864560E0,4.605000094E-2,-9.849000931E0,-4.399500191E-1
4.243949481E0,-3.705000132E-2,-9.742950439E0,-4.140000343E-1
4.254034320E0,-1.180500090E-1,-9.634950638E0,-3.949500322E-1
4.264119241E0,-1.060500070E-1,-9.537000656E0,-3.589500189E-1
4.274203945E0,1.990500093E-1,-9.645000458E0,-4.500000179E-2
4.284288793E0,-3.940500319E-1,-9.489000320E0,-4.140000343E-1
4.294373487E0,-6.040500402E-1,-9.628050804E0,-1.278000116E0
4.304458414E0,-3.030000031E-1,-9.880050659E0,-2.299500108E-1
4.314543281E0,-5.710500479E-1,-9.682950020E0,-3.090000153E-1
4.324627983E0,-4.900500178E-1,-9.612000465E0,-5.170500278E-1
4.334712899E0,-3.439500034E-1,-9.862950325E0,-3.690000176E-1
4.344797742E0,-2.670000196E-1,-1.007100010E1,-5.070000291E-1
4.354882435E0,-1.260000020E-1,-1.007400036E1,-4.120500088E-1
4.364967289E0,-4.050000105E-3,-9.994950294E0,-3.210000098E-1
4.375052226E0,1.390500069E-1,-9.901050568E0,-3.570000231E-1
4.385136910E0,2.089500129E-1,-9.850950241E0,-2.779500186E-1
4.395221827E0,1.870500147E-1,-9.796050072E0,-2.320500165E-1
4.405306676E0,2.440500110E-1,-9.760050774E0,-1.390500069E-1
4.415391305E0,3.330000043E-1,-9.714000702E0,-1.170000061E-1
4.425476226E0,3.670500219E-1,-9.649950027E0,-1.270500124E-1
4.435560929E0,4.099500179E-1,-9.588000298E0,-6.900000572E-2
4.445645856E0,5.250000358E-1,-9.520950317E0,-6.900000572E-2
4.455730680E0,4.650000334E-1,-9.517950058E0,-1.549500078E-1
4.465815372E0,3.379500210E-1,-9.549000740E0,-2.149500102E-1
4.475900284E0,2.250000089E-1,-9.537000656E0,-3.570000231E-1
4.485985136E0,8.400000632E-2,-9.571050644E0,-4.020000100E-1
4.496069829E0,-1.095000096E-2,-9.624000549E0,-3.610500097E-1
4.506154654E0,-1.305000018E-2,-9.700050354E0,-2.080500126E-1
4.516239557E0,3.105000220E-2,-9.721950531E0,-1.720500141E-1
4.526324270E0,4.800000042E-2,-9.750000000E0,-3.160500228E-1
4.536409119E0,7.905000448E-2,-9.865050316E0,-3.850500286E-1
4.546493814E0,5.505000427E-2,-9.873000145E0,-3.420000076E-1
4.556578735E0,2.700000070E-2,-9.801000595E0,-2.939999998E-1
4.566663597E0,-3.705000132E-2,-9.741000175E0,-2.659500241E-1
4.576748294E0,-7.500000298E-2,-9.703050613E0,-1.870500147E-1
4.586833125E0,-7.500000298E-2,-9.669000626E0,-1.150500029E-1
4.596917819E0,-3.705000132E-2,-9.682950020E0,-1.699500084E-1
4.607002725E0,-1.180500090E-1,-9.789000511E0,-3.469500244E-1
4.617087578E0,-1.420500129E-1,-9.874950409E0,-4.759500325E-1
4.627172270E0,-1.110000089E-1,-9.966000557E0,-4.740000367E-1
4.637257110E0,-1.279500127E-1,-9.975000381E0,-3.850500286E-1
4.647342033E0,-1.180500090E-1,-9.894000053E0,-3.090000153E-1
4.657426741E0,-1.995000057E-2,-9.798000336E0,-2.179500163E-1
4.667511585E0,-2.700000070E-2,-9.748050690E0,-2.029500157E-1
4.677596285E0,-1.090500057E-1,-9.679050446E0,-2.509500086E-1
4.687681134E0,-1.399500072E-1,-9.649950027E0,-2.730000019E-1
4.697766052E0,-9.495000541E-2,-9.655050278E0,-2.610000074E-1
4.707850732E0,-1.060500070E-1,-9.645000458E0,-3.210000098E-1
4.717935571E0,-5.400000140E-2,-9.643050194E0,-3.760500252E-1
4.728020475E0,-4.395000264E-2,-9.619050026E0,-4.450500309E-1
4.738105174E0,-1.140000075E-1,-9.625950813E0,-5.509500504E-1
4.748190018E0,-1.710000038E-1,-9.655050278E0,-5.860500336E-1
4.758274717E0,-1.740000099E-1,-9.681000710E0,-5.220000148E-1
4.768359543E0,-8.295000345E-2,-9.721950531E0,-4.450500309E-1
4.778444227E0,-1.995000057E-2,-9.778950691E0,-4.039500058E-1
4.788529163E0,3.405000269E-2,-9.858000755E0,-3.760500252E-1
4.798614015E0,9.600000083E-2,-9.901050568E0,-3.469500244E-1
4.808698722E0,1.030500084E-1,-9.954000473E0,-3.949500322E-1
4.818783557E0,5.295000225E-2,-1.000695038E1,-4.189500213E-1
4.828868485E0,4.305000231E-2,-9.961050034E0,-4.999500215E-1
4.838953179E0,9.600000083E-2,-9.894000053E0,-4.860000312E-1
4.849038023E0,1.219500080E-1,-9.822000504E0,-4.020000100E-1
4.859122718E0,1.540500075E-1,-9.781949997E0,-2.970000207E-1
4.869207649E0,1.579500139E-1,-9.736050606E0,-2.730000019E-1
4.879292497E0,1.369500011E-1,-9.700050354E0,-3.490500152E-1
4.889377184E0,1.369500011E-1,-9.691050529E0,-3.880500197E-1
4.899462028E0,1.249500066E-1,-9.709950447E0,-4.380000234E-1
4.909546737E0,5.295000225E-2,-9.733950615E0,-4.600500166E-1
4.919631601E0,-6.105000153E-2,-9.721950531E0,-3.469500244E-1
4.929716295E0,-1.230000034E-1,-9.718950272E0,-2.269500047E-1
4.939801216E0,-2.070000172E-1,-9.748050690E0,-1.990500093E-1
4.949886050E0,-2.639999986E-1,-9.750000000E0,-2.779500186E-1
4.959970743E0,-2.119500041E-1,-9.730950356E0,-3.109500110E-1
4.970055611E0,-9.195000678E-2,-9.748050690E0,-3.660000265E-1
4.980140529E0,5.295000225E-2,-9.762000084E0,-4.500000179E-1
4.990225228E0,1.249500066E-1,-9.760050774E0,-4.189500213E-1
5.000310063E0,1.579500139E-1,-9.784050941E0,-3.970500231E-1
5.010394767E0,2.040000111E-1,-9.793950081E0,-3.330000043E-1
5.020479611E0,2.710500062E-1,-9.789000511E0,-2.389500141E-1
5.030564300E0,2.710500062E-1,-9.832050323E0,-2.939999998E-1
5.040649150E0,2.419500053E-1,-9.838950157E0,-3.690000176E-1
5.050734073E0,2.110500038E-1,-9.853050232E0,-3.780000210E-1
5.060818762E0,1.080000028E-1,-9.850950241E0,-4.519500136E-1
5.070903596E0,7.905000448E-2,-9.766950607E0,-4.429500103E-1
5.080988277E0,2.205000073E-2,-9.643050194E0,-2.700000107E-1
5.091073116E0,-4.395000264E-2,-9.568050385E0,-1.770000011E-1
5.101158044E0,-5.595000088E-2,-9.540000916E0,-1.000500023E-1
5.111242738E0,-6.795000285E-2,-9.559050560E0,-5.700000376E-2
5.121327591E0,-1.260000020E-1,-9.613950729E0,-1.440000087E-1
5.131412286E0,-1.969500035E-1,-9.667050362E0,-2.149500102E-1
5.141497135E0,-2.740500271E-1,-9.733950615E0,-2.629500031E-1
5.151581814E0,-3.439500034E-1,-9.805050850E0,-3.450000286E-1
5.161666668E0,-4.009500146E-1,-9.862950325E0,-4.380000234E-1
5.171751596E0,-4.440000355E-1,-9.870000839E0,-4.240500331E-1
5.181836291E0,-4.459500313E-1,-9.844050407E0,-3.229500055E-1
5.191921158E0,-3.409500122E-1,-9.810000420E0,-2.080500126E-1
5.202005847E0,-4.489500225E-1,-9.640050888E0,-2.059500068E-1
5.212090764E0,-3.940500319E-1,-9.777000427E0,-8.280000687E-1
5.222175377E0,-1.159500033E-1,-9.913050652E0,-4.309500158E-1
5.232260293E0,-1.180500090E-1,-9.676050186E0,-1.579500139E-1
5.242345135E0,3.105000220E-2,-9.592050552E0,-5.719500184E-1
5.252429829E0,2.700000070E-2,-9.750000000E0,-5.839500427E-1
5.262514692E0,-1.110000089E-1,-9.825000763E0,-4.570500255E-1
5.272599400E0,-3.150000274E-1,-9.987000465E0,-4.720500112E-1
5.282684230E0,-3.889500201E-1,-9.937050819E0,-4.600500166E-1
5.292768938E0,-1.759500057E-1,-9.817050934E0,-4.279500246E-1
5.302853779E0,-9.195000678E-2,-9.802950859E0,-5.740500093E-1
5.312938711E0,-5.595000088E-2,-9.874950409E0,-5.860500336E-1
5.323023415E0,-8.295000345E-2,-9.865050316E0,-3.690000176E-1
5.333108259E0,-1.540500075E-1,-9.801000595E0,-3.060000241E-1
5.343192959E0,-6.300000101E-2,-9.774000168E0,-4.020000100E-1
5.353277788E0,-7.800000161E-2,-9.729000092E0,-3.450000286E-1
5.363362458E0,-1.279500127E-1,-9.646950722E0,-3.760500252E-1
5.373447302E0,-1.305000018E-2,-9.619050026E0,-4.240500331E-1
5.383532235E0,2.610000074E-1,-9.693000793E0,-4.120500088E-1
5.393616939E0,1.770000011E-1,-9.657000542E0,-4.620000124E-1
5.403701793E0,2.419500053E-1,-9.600000381E0,-4.020000100E-1
5.413786487E0,1.770000011E-1,-9.670950890E0,-4.069500268E-1
5.423871355E0,1.080000028E-1,-9.796050072E0,-4.429500103E-1
5.433956040E0,3.900000080E-2,-9.844050407E0,-3.330000043E-1
5.444040884E0,-4.200000316E-2,-9.898950577E0,-2.820000052E-1
5.454125821E0,-1.230000034E-1,-9.883950233E0,-4.260000288E-1
5.464210453E0,-1.590000093E-1,-9.802950859E0,-4.690500200E-1
5.474295365E0,-2.260500044E-1,-9.733950615E0,-5.100000501E-1
5.484379982E0,-2.329500169E-1,-9.718950272E0,-4.480500221E-1
5.494464908E0,-1.260000020E-1,-9.706950188E0,-3.019500077E-1
5.504549602E0,1.200000010E-2,-9.658950806E0,-2.149500102E-1
5.514634442E0,8.205000311E-2,-9.597000122E0,-1.699500084E-1
5.524719126E0,1.009500027E-1,-9.544050217E0,-2.250000089E-1
5.534804047E0,1.129500046E-1,-9.517950058E0,-2.700000107E-1
5.544888895E0,1.870500147E-1,-9.556050301E0,-3.970500231E-1
5.554973502E0,2.850000262E-1,-9.616050720E0,-4.830000103E-1
5.565058194E0,3.589500189E-1,-9.657000542E0,-4.879500270E-1
5.575143124E0,3.190500140E-1,-9.706950188E0,-5.029500127E-1
5.585227951E0,2.250000089E-1,-9.741000175E0,-5.050500035E-1
5.595312630E0,1.489500105E-1,-9.796050072E0,-5.580000281E-1
5.605397452E0,4.095000029E-2,-9.918000221E0,-6.250500083E-1
5.615482142E0,-1.060500070E-1,-9.931950569E0,-6.130500436E-1
5.625566981E0,-2.740500271E-1,-9.904050827E0,-5.580000281E-1
5.635651676E0,-2.860500216E-1,-9.822000504E0,-5.310000181E-1
5.645736505E0,-1.950000077E-1,-9.741000175E0,-4.740000367E-1
5.655821438E0,-1.420500129E-1,-9.706950188E0,-4.399500191E-1
5.665906117E0,-9.705000371E-2,-9.688050270E0,-4.069500268E-1
5.675990952E0,-3.195000067E-2,-9.669000626E0,-4.189500213E-1
5.686075666E0,-5.100000277E-2,-9.700050354E0,-4.639500082E-1
5.696160505E0,-1.879500151E-1,-9.798000336E0,-4.330500066E-1
5.706245209E0,-1.590000093E-1,-9.906000137E0,-4.159500301E-1
5.716330053E0,-3.705000132E-2,-9.940050125E0,-3.930000067E-1
5.726414743E0,-4.695000127E-2,-9.925050735E0,-4.309500158E-1
5.736499664E0,-1.210500076E-1,-9.870000839E0,-4.669500291E-1
5.746584290E0,-1.330500096E-1,-9.895950317E0,-4.189500213E-1
5.756669134E0,-3.705000132E-2,-9.813000679E0,-2.779500186E-1
5.766754072E0,-2.295000106E-2,-9.693000793E0,-2.389500141E-1
5.776838791E0,-7.500000298E-2,-9.607050896E0,-2.970000207E-1
5.786923401E0,-1.710000038E-1,-9.577950478E0,-4.120500088E-1
5.797008312E0,-1.620000005E-1,-9.613950729E0,-3.300000131E-1
5.807093168E0,1.905000024E-2,-9.568050385E0,-3.180000186E-1
5.817177863E0,-1.995000057E-2,-9.676050186E0,-4.789500237E-1
5.827262702E0,-9.000000358E-2,-9.729000092E0,-3.370500207E-1
5.837347371E0,-2.449500114E-1,-9.552000046E0,-4.759500325E-1
5.847432215E0,-6.599999964E-2,-9.694950104E0,-6.079500318E-1
5.857516934E0,1.180500090E-1,-9.805050850E0,-5.670000315E-1
5.867601778E0,1.609500051E-1,-9.895950317E0,-6.150000095E-1
5.877686472E0,3.430500031E-1,-9.880050659E0,-4.000500143E-1
5.887771306E0,4.600500166E-1,-9.805050850E0,-1.360500008E-1
5.897856011E0,5.200500488E-1,-9.760050774E0,-9.300000221E-2
5.907940845E0,5.170500278E-1,-9.714000702E0,-2.059500068E-1
5.918025544E0,5.460000038E-1,-9.691050529E0,-2.730000019E-1
5.928110389E0,4.770000279E-1,-9.694950104E0,-3.229500055E-1
5.938195078E0,3.910500109E-1,-9.676050186E0,-3.640500307E-1
5.948279922E0,4.050000310E-1,-9.589950562E0,-3.229500055E-1
5.958364592E0,4.380000234E-1,-9.604050636E0,-2.749500275E-1
5.968449528E0,2.110500038E-1,-9.733950615E0,-4.639500082E-1
5.978534377E0,2.700000070E-2,-9.865050316E0,-5.050500035E-1
5.988619064E0,1.270500124E-1,-9.822000504E0,-2.370000184E-1
5.998703898E0,1.905000024E-2,-9.760050774E0,-3.180000186E-1
6.008788592E0,-7.500000298E-2,-9.781949997E0,-3.490500152E-1
6.018873437E0,-1.639500111E-1,-9.801000595E0,-2.250000089E-1
6.028958117E0,-1.590000093E-1,-9.766950607E0,-1.990500093E-1
6.039042975E0,-1.039500013E-1,-9.786000252E0,-1.630500108E-1
6.049127684E0,-1.350000054E-1,-9.784050941E0,-1.789500117E-1
6.059212529E0,-2.190000117E-1,-9.798000336E0,-2.659500241E-1
6.069297214E0,-2.620500028E-1,-9.793950081E0,-3.520500064E-1
6.079382058E0,-4.200000167E-1,-9.802950859E0,-4.039500058E-1
6.089466743E0,-4.990500212E-1,-9.801000595E0,-2.200500071E-1
6.099551582E0,-3.870000243E-1,-9.820050240E0,-1.270500124E-1
6.109636286E0,-3.390000165E-1,-9.760050774E0,-1.510500014E-1
6.119721130E0,-1.090500057E-1,-9.762000084E0,-2.149500102E-1
6.129805830E0,9.600000083E-2,-9.777000427E0,-3.400500119E-1
6.139890674E0,1.489500105E-1,-9.778950691E0,-4.380000234E-1
6.149975382E0,2.250000089E-1,-9.822000504E0,-3.109500110E-1
6.160060312E0,2.680500150E-1,-9.793950081E0,-2.299500108E-1
6.170144930E0,3.210000098E-1,-9.778950691E0,-1.000500023E-1
6.180229774E0,3.709500134E-1,-9.714000702E0,-1.200000010E-2
6.190314683E0,4.000500143E-1,-9.769950867E0,-1.050000042E-1
6.200399386E0,3.330000043E-1,-9.817050934E0,-2.989500165E-1
6.210483998E0,3.019500077E-1,-9.834000587E0,-1.650000066E-1
6.220568919E0,2.539499998E-1,-9.808050156E0,-5.505000427E-2
6.230653521E0,1.249500066E-1,-9.861000061E0,-1.650000066E-1
6.240738365E0,8.895000070E-2,-9.931950569E0,-3.660000265E-1
6.250823060E0,1.200000048E-1,-9.865050316E0,-3.019500077E-1
6.260907904E0,2.010000050E-1,-9.733950615E0,-2.610000074E-1
6.270992827E0,1.699500084E-1,-9.705000877E0,-2.850000262E-1
6.281077444E0,1.560000032E-1,-9.655050278E0,-2.110500038E-1
6.291162142E0,1.459500045E-1,-9.600000381E0,-1.440000087E-1
6.301246976E0,1.129500046E-1,-9.540000916E0,-1.789500117E-1
6.311331661E0,1.300500035E-1,-9.480000496E0,-1.939500123E-1
6.321416572E0,1.129500046E-1,-9.613950729E0,-1.890000105E-1
6.331501176E0,-1.305000018E-2,-9.802950859E0,-2.850000262E-1
6.341586116E0,-1.230000034E-1,-9.834000587E0,-3.090000153E-1
6.351670738E0,-1.780500114E-1,-9.844050407E0,-2.269500047E-1
6.361755596E0,-1.090500057E-1,-9.838950157E0,-2.389500141E-1
6.371840534E0,-1.800000109E-2,-9.853050232E0,-3.019500077E-1
6.381925229E0,7.050000131E-3,-9.907950401E0,-3.540000021E-1
6.392009839E0,-7.800000161E-2,-9.958950043E0,-4.260000288E-1
6.402094683E0,-1.810500026E-1,-9.940050125E0,-4.879500270E-1
6.412179619E0,-1.930500120E-1,-9.850950241E0,-4.279500246E-1
6.422264329E0,-1.620000005E-1,-9.774000168E0,-2.610000074E-1
6.432348929E0,-1.639500111E-1,-9.694950104E0,-1.549500078E-1
6.442433773E0,-3.495000303E-2,-9.670950890E0,-9.600000083E-2
6.452518691E0,1.180500090E-1,-9.694950104E0,-7.605000585E-2
6.462603304E0,2.110500038E-1,-9.789000511E0,-8.805000782E-2
6.472688006E0,3.430500031E-1,-9.856050491E0,-1.150500029E-1
6.482772850E0,4.770000279E-1,-9.910950661E0,-1.360500008E-1
6.492857559E0,5.610000491E-1,-9.873000145E0,-1.669500023E-1
6.502942427E0,6.370500326E-1,-9.808050156E0,-2.010000050E-1
6.513027102E0,7.330500484E-1,-9.691050529E0,-2.230500132E-1
6.523111932E0,7.429500222E-1,-9.561000824E0,-1.990500093E-1
6.533196607E0,7.570500374E-1,-9.516000748E0,-1.600500047E-1
6.543281447E0,6.199500561E-1,-9.517950058E0,-2.130000144E-1
6.553366145E0,4.380000234E-1,-9.556050301E0,-1.750500053E-1
6.563451071E0,2.950500250E-1,-9.631050110E0,-1.410000026E-1
6.573535689E0,2.059500068E-1,-9.750000000E0,-2.610000074E-1
6.583620519E0,1.080000028E-1,-9.849000931E0,-2.200500071E-1
6.593705213E0,4.950000439E-3,-9.954000473E0,-2.149500102E-1
6.603790057E0,-1.399500072E-1,-1.006200027E1,-2.509500086E-1
6.613874756E0,-2.140500098E-1,-1.011900043E1,-3.810000122E-1
6.623959605E0,-2.500500083E-1,-1.009500027E1,-2.749500275E-1
6.634044299E0,-2.410500050E-1,-9.982950211E0,-2.029500157E-1
6.644129143E0,-2.050500065E-1,-9.793950081E0,-2.230500132E-1
6.654213833E0,-2.020500153E-1,-9.613950729E0,-3.060000241E-1
6.664298672E0,-1.950000077E-1,-9.477000237E0,-2.269500047E-1
6.674383357E0,-2.209500074E-1,-9.382050514E0,-1.750500053E-1
6.684468215E0,-2.209500074E-1,-9.376950264E0,-2.899500132E-1
6.694552819E0,-1.690500081E-1,-9.376950264E0,-4.399500191E-1
6.704637509E0,-7.304999977E-2,-9.415050507E0,-5.359500051E-1
6.714722441E0,6.300000101E-2,-9.523050308E0,-5.119500160E-1
6.724807278E0,2.280000150E-1,-9.658950806E0,-4.690500200E-1
6.734891973E0,3.760500252E-1,-9.796050072E0,-3.930000067E-1
6.744976602E0,4.170000255E-1,-9.883950233E0,-3.690000176E-1
6.755061446E0,3.790500164E-1,-9.987000465E0,-3.019500077E-1
6.765146355E0,3.589500189E-1,-1.003995037E1,-2.850000262E-1
6.775230977E0,3.910500109E-1,-1.003800011E1,-3.229500055E-1
6.785315669E0,4.530000091E-1,-1.004295063E1,-3.810000122E-1
6.795400518E0,5.340000391E-1,-9.973050117E0,-4.600500166E-1
6.805485238E0,5.610000491E-1,-9.853050232E0,-4.210500121E-1
6.815570072E0,5.080500245E-1,-9.729000092E0,-3.900000155E-1
6.825654781E0,4.429500103E-1,-9.667050362E0,-3.780000210E-1
6.835739397E0,3.910500109E-1,-9.633000374E0,-3.660000265E-1
6.845824318E0,3.570000231E-1,-9.612000465E0,-4.159500301E-1
6.855909164E0,2.639999986E-1,-9.624000549E0,-3.810000122E-1
6.865993872E0,1.390500069E-1,-9.682950020E0,-3.019500077E-1
6.876078488E0,4.800000042E-2,-9.774000168E0,-3.180000186E-1
6.886163322E0,-1.095000096E-2,-9.832050323E0,-3.330000043E-1
6.896248016E0,-1.800000109E-2,-9.865050316E0,-3.520500064E-1
6.906332855E0,-5.100000277E-2,-9.910950661E0,-3.610500097E-1
6.916417560E0,-1.210500076E-1,-9.907950401E0,-3.490500152E-1
6.926502404E0,-1.900500059E-1,-9.913050652E0,-3.349500299E-1
6.936587112E0,-2.790000141E-1,-9.906000137E0,-3.210000098E-1
6.946671942E0,-3.100500107E-1,-9.880050659E0,-3.280500174E-1
6.956756637E0,-2.790000141E-1,-9.849000931E0,-2.920500040E-1
6.966841281E0,-2.070000172E-1,-9.808050156E0,-2.970000207E-1
6.976926110E0,-1.519500017E-1,-9.738000870E0,-2.130000144E-1
6.987010800E0,-1.420500129E-1,-9.724050522E0,-2.299500108E-1
6.997095634E0,-9.000000358E-2,-9.741000175E0,-1.290000081E-1
7.007180337E0,-5.895000324E-2,-9.703050613E0,-8.595000207E-2
7.017264953E0,-1.305000018E-2,-9.661950111E0,-1.270500124E-1
7.027349850E0,2.205000073E-2,-9.613950729E0,-1.339500099E-1
7.037434696E0,-1.050000079E-3,-9.640050888E0,-2.059500068E-1
7.047519377E0,2.895000204E-2,-9.676050186E0,-3.229500055E-1
7.057603993E0,4.095000029E-2,-9.670950890E0,-3.090000153E-1
7.067688837E0,0.000000000E0,-9.652050018E0,-2.509500086E-1
7.077773769E0,-1.050000079E-3,-9.657000542E0,-2.580000162E-1
7.087858390E0,6.000000238E-2,-9.693000793E0,-3.090000153E-1
7.097943079E0,1.905000024E-2,-9.772050858E0,-3.970500231E-1
7.108027923E0,-6.105000153E-2,-9.820050240E0,-4.860000312E-1
7.118112603E0,-9.000000358E-2,-9.822000504E0,-5.070000291E-1
7.128197457E0,-1.570500135E-1,-9.781949997E0,-4.620000124E-1
7.138282137E0,-2.410500050E-1,-9.778950691E0,-4.309500158E-1
7.148366733E0,-2.929500043E-1,-9.736050606E0,-4.639500082E-1
7.158451577E0,-2.089500129E-1,-9.688050270E0,-3.400500119E-1
7.168536272E0,-2.020500153E-1,-9.726000786E0,-2.939999998E-1
7.178621116E0,-1.639500111E-1,-9.703050613E0,-3.589500189E-1
7.188705824E0,-4.395000264E-2,-9.712050438E0,-3.109500110E-1
7.198790668E0,9.795000404E-2,-9.754950523E0,-1.549500078E-1
7.208875363E0,2.710500062E-1,-9.820050240E0,-2.110500038E-1
7.218960207E0,3.070500195E-1,-9.870000839E0,-2.939999998E-1
7.229044824E0,3.330000043E-1,-9.870000839E0,-3.450000286E-1
7.239129514E0,3.259500265E-1,-9.901050568E0,-2.869500220E-1
7.249214361E0,3.120000064E-1,-9.849000931E0,-3.139500022E-1
7.259299284E0,3.070500195E-1,-9.772050858E0,-4.309500158E-1
7.269383892E0,3.790500164E-1,-9.774000168E0,-4.810500145E-1
7.279468589E0,2.970000207E-1,-9.757950783E0,-5.790000558E-1
7.289553428E0,1.270500124E-1,-9.813000679E0,-5.479500294E-1
7.299638103E0,4.305000231E-2,-9.810000420E0,-5.290500522E-1
7.309722728E0,5.505000427E-2,-9.738000870E0,-4.380000234E-1
7.319807602E0,5.505000427E-2,-9.619050026E0,-4.189500213E-1
7.329892286E0,1.695000008E-2,-9.492000580E0,-4.309500158E-1
7.339977130E0,-3.000000119E-2,-9.516000748E0,-4.879500270E-1
7.350061829E0,1.905000024E-2,-9.552000046E0,-5.269500017E-1
7.360146683E0,-4.905000329E-2,-9.585000038E0,-4.500000179E-1
7.370231291E0,-1.879500151E-1,-9.631050110E0,-4.720500112E-1
7.380316212E0,-2.530499995E-1,-9.703050613E0,-6.919500232E-1
7.390400830E0,-5.895000324E-2,-9.621000290E0,-7.800000310E-1
7.400485522E0,-2.359500080E-1,-9.769950867E0,-5.860500336E-1
7.410570137E0,-3.529500067E-1,-9.850950241E0,-7.440000176E-1
7.420655043E0,-2.760000229E-1,-9.858000755E0,-7.900500298E-1
7.430739895E0,-2.190000117E-1,-9.882000923E0,-6.990000606E-1
7.440824594E0,-2.329500169E-1,-9.975000381E0,-6.919500232E-1
7.450909218E0,-2.190000117E-1,-9.994950294E0,-7.830000520E-1
7.460994053E0,-1.620000005E-1,-9.997050285E0,-6.559500098E-1
7.471078728E0,-2.209500074E-1,-9.865050316E0,-6.030000448E-1
7.481163572E0,-3.340500295E-1,-9.724050522E0,-5.860500336E-1
7.491248257E0,-3.700500131E-1,-9.595050812E0,-4.789500237E-1
7.501332863E0,-4.440000355E-1,-9.544050217E0,-4.600500166E-1
7.511417693E0,-4.320000112E-1,-9.588000298E0,-4.380000234E-1
7.521502358E0,-4.080000222E-1,-9.616050720E0,-3.780000210E-1
7.531587202E0,-3.870000243E-1,-9.657000542E0,-3.300000131E-1
7.541671897E0,-2.089500129E-1,-9.714000702E0,-3.850500286E-1
7.551756512E0,4.605000094E-2,-9.762000084E0,-4.429500103E-1
7.561841360E0,2.160000056E-1,-9.798000336E0,-4.210500121E-1
7.571926065E0,3.210000098E-1,-9.796050072E0,-4.069500268E-1
7.582010899E0,4.500000179E-1,-9.801000595E0,-3.949500322E-1
7.592095593E0,5.869500041E-1,-9.777000427E0,-3.640500307E-1
7.602180422E0,6.709500551E-1,-9.738000870E0,-3.370500207E-1
7.612265136E0,6.799500585E-1,-9.714000702E0,-3.810000122E-1
7.622349985E0,6.829500198E-1,-9.685950279E0,-4.360500276E-1
7.632434588E0,6.280500293E-1,-9.657000542E0,-4.690500200E-1
7.642519283E0,5.700000525E-1,-9.681000710E0,-4.950000346E-1
7.652604139E0,4.410000145E-1,-9.676050186E0,-5.430000424E-1
7.662688847E0,3.120000064E-1,-9.703050613E0,-5.310000181E-1
7.672773492E0,1.990500093E-1,-9.741000175E0,-5.149500370E-1
7.682858336E0,5.100000277E-2,-9.772050858E0,-4.980000257E-1
7.692943045E0,-4.695000127E-2,-9.810000420E0,-4.950000346E-1
7.703027903E0,-1.039500013E-1,-9.858000755E0,-4.909500182E-1
7.713112603E0,-2.170500159E-1,-9.892050743E0,-4.690500200E-1
7.723197218E0,-3.270000219E-1,-9.886950493E0,-4.380000234E-1
7.733282057E0,-4.369500279E-1,-9.838950157E0,-4.380000234E-1
7.743366751E0,-4.080000222E-1,-9.822000504E0,-4.020000100E-1
7.753451606E0,-4.009500146E-1,-9.808050156E0,-4.210500121E-1
7.763536213E0,-4.180500209E-1,-9.753000259E0,-3.900000155E-1
7.773620903E0,-4.030500054E-1,-9.709950447E0,-3.540000021E-1
7.783705750E0,-3.649500310E-1,-9.667050362E0,-3.400500119E-1
7.793790458E0,-3.120000064E-1,-9.624000549E0,-3.280500174E-1
7.803875088E0,-2.860500216E-1,-9.625950813E0,-3.540000021E-1
7.813959913E0,-1.810500026E-1,-9.621000290E0,-4.090500176E-1
7.824044613E0,-1.090500057E-1,-9.621000290E0,-4.429500103E-1
7.834129466E0,-6.105000153E-2,-9.658950806E0,-3.970500231E-1
7.844214160E0,-1.305000018E-2,-9.688050270E0,-4.279500246E-1
7.854299004E0,1.500000060E-2,-9.714000702E0,-4.930500090E-1
7.864383622E0,4.305000231E-2,-9.724050522E0,-4.879500270E-1
7.874468312E0,6.000000238E-2,-9.717000008E0,-5.029500127E-1
7.884553158E0,2.895000204E-2,-9.760050774E0,-4.980000257E-1
7.894637762E0,3.405000269E-2,-9.796050072E0,-4.600500166E-1
7.904722466E0,2.400000021E-2,-9.858000755E0,-4.090500176E-1
7.914807303E0,2.205000073E-2,-9.838950157E0,-3.970500231E-1
7.924892011E0,5.295000225E-2,-9.825000763E0,-4.120500088E-1
7.934976636E0,8.895000070E-2,-9.790950775E0,-4.039500058E-1
7.945061470E0,4.605000094E-2,-9.796050072E0,-4.210500121E-1
7.955146156E0,-3.495000303E-2,-9.810000420E0,-4.600500166E-1
7.965231010E0,-9.900000691E-2,-9.832050323E0,-4.759500325E-1
7.975315709E0,-2.089500129E-1,-9.870000839E0,-4.690500200E-1
7.985400563E0,-2.910000086E-1,-9.850950241E0,-4.549500346E-1
7.995485190E0,-3.510000110E-1,-9.856050491E0,-4.399500191E-1
8.005569880E0,-3.529500067E-1,-9.825000763E0,-4.090500176E-1
8.015654712E0,-3.390000165E-1,-9.766950607E0,-3.810000122E-1
8.025739330E0,-3.000000119E-1,-9.700050354E0,-3.690000176E-1
8.035824020E0,-2.190000117E-1,-9.634950638E0,-3.370500207E-1
8.045908866E0,-1.330500096E-1,-9.624000549E0,-2.869500220E-1
8.055993479E0,-4.050000105E-3,-9.609000206E0,-2.179500163E-1
8.066078154E0,1.200000048E-1,-9.616050720E0,-3.019500077E-1
8.076163015E0,2.130000144E-1,-9.682950020E0,-4.000500143E-1
8.086247704E0,2.730000019E-1,-9.784050941E0,-4.600500166E-1
8.096332549E0,3.160500228E-1,-9.861000061E0,-5.509500504E-1
8.106417272E0,3.400500119E-1,-9.886950493E0,-5.860500336E-1
8.116501882E0,3.520500064E-1,-9.841050148E0,-5.340000391E-1
8.126586731E0,3.310500085E-1,-9.793950081E0,-4.980000257E-1
8.136671349E0,3.450000286E-1,-9.733950615E0,-4.360500276E-1
8.146756048E0,3.040500283E-1,-9.676050186E0,-3.520500064E-1
8.156840889E0,2.590500116E-1,-9.669000626E0,-2.920500040E-1
8.166925503E0,2.160000056E-1,-9.705000877E0,-2.659500241E-1
8.177010438E0,1.319999993E-1,-9.750000000E0,-2.749500275E-1
8.187095118E0,2.895000204E-2,-9.774000168E0,-2.730000019E-1
8.197179734E0,-1.210500076E-1,-9.829050064E0,-2.939999998E-1
8.207264563E0,-2.119500041E-1,-9.880050659E0,-3.280500174E-1
8.217349271E0,-2.670000196E-1,-9.918000221E0,-3.540000021E-1
8.227433883E0,-3.360000253E-1,-9.906000137E0,-3.420000076E-1
8.237518712E0,-3.289500177E-1,-9.904050827E0,-2.970000207E-1
8.247603425E0,-2.430000156E-1,-9.931950569E0,-2.820000052E-1
8.257688031E0,-1.810500026E-1,-9.868050575E0,-2.730000019E-1
8.267772876E0,-1.180500090E-1,-9.762000084E0,-2.610000074E-1
8.277857560E0,-4.200000316E-2,-9.657000542E0,-2.610000074E-1
8.287942399E0,9.600000083E-2,-9.564000130E0,-2.869500220E-1
8.298027003E0,2.179500163E-1,-9.537000656E0,-2.850000262E-1
8.308111905E0,2.659500241E-1,-9.492000580E0,-3.229500055E-1
8.318196512E0,3.640500307E-1,-9.493950844E0,-3.109500110E-1
8.328281209E0,3.949500322E-1,-9.537000656E0,-3.709500134E-1
8.338365820E0,4.219500124E-1,-9.589950562E0,-3.829500079E-1
8.348450645E0,4.789500237E-1,-9.646950722E0,-3.210000098E-1
8.358535338E0,5.010000467E-1,-9.679050446E0,-3.610500097E-1
8.368619964E0,5.029500127E-1,-9.754950523E0,-3.810000122E-1
8.378704808E0,4.600500166E-1,-9.825000763E0,-4.759500325E-1
8.388789521E0,4.000500143E-1,-9.916050911E0,-5.389500260E-1
8.398874365E0,2.779500186E-1,-9.978000641E0,-5.580000281E-1
8.408958988E0,1.729500145E-1,-9.961050034E0,-5.190000534E-1
8.419043678E0,1.890000105E-1,-9.870000839E0,-5.119500160E-1
8.429128505E0,1.699500084E-1,-9.841050148E0,-5.580000281E-1
8.439213147E0,1.630500108E-1,-9.777000427E0,-4.909500182E-1
8.449297846E0,1.009500027E-1,-9.724050522E0,-4.330500066E-1
8.459382692E0,-1.095000096E-2,-9.709950447E0,-4.500000179E-1
8.469467378E0,-1.540500075E-1,-9.691050529E0,-4.039500058E-1
8.479551997E0,-2.599500120E-1,-9.697950363E0,-3.709500134E-1
8.489636846E0,-3.240000010E-1,-9.721950531E0,-3.490500152E-1
8.499721540E0,-3.820500076E-1,-9.753000259E0,-3.900000155E-1
8.509806151E0,-4.459500313E-1,-9.814950943E0,-3.900000155E-1
8.519891000E0,-4.630500078E-1,-9.825000763E0,-3.660000265E-1
8.529975694E0,-4.390500188E-1,-9.781949997E0,-3.469500244E-1
8.540060310E0,-3.750000298E-1,-9.757950783E0,-3.640500307E-1
8.550145154E0,-3.240000010E-1,-9.781949997E0,-3.730500042E-1
8.560229834E0,-2.329500169E-1,-9.781949997E0,-3.400500119E-1
8.570314445E0,-1.210500076E-1,-9.745950699E0,-2.970000207E-1
8.580399275E0,2.700000070E-2,-9.760050774E0,-3.420000076E-1
8.590483978E0,1.459500045E-1,-9.753000259E0,-4.279500246E-1
8.600568822E0,1.969500035E-1,-9.741000175E0,-4.360500276E-1
8.610653440E0,2.560500205E-1,-9.717000008E0,-4.189500213E-1
8.620738145E0,2.830500007E-1,-9.750000000E0,-3.900000155E-1
8.630822776E0,2.950500250E-1,-9.753000259E0,-3.660000265E-1
8.640907620E0,2.880000174E-1,-9.745950699E0,-3.640500307E-1
8.650992296E0,2.880000174E-1,-9.742950439E0,-4.159500301E-1
8.661077135E0,2.610000074E-1,-9.786000252E0,-4.639500082E-1
8.671161830E0,1.800000072E-1,-9.837000847E0,-4.830000103E-1
8.681246445E0,8.205000311E-2,-9.928050041E0,-4.189500213E-1
8.691331060E0,7.050000131E-3,-9.970950127E0,-3.780000210E-1
8.701415905E0,-6.000000052E-3,-9.958950043E0,-3.760500252E-1
8.711500608E0,-6.795000285E-2,-9.910950661E0,-3.730500042E-1
8.721585443E0,-1.450500041E-1,-9.895950317E0,-3.810000122E-1
8.731670050E0,-1.950000077E-1,-9.910950661E0,-3.880500197E-1
8.741754745E0,-2.310000062E-1,-9.868050575E0,-3.330000043E-1
8.751839591E0,-1.969500035E-1,-9.781949997E0,-2.779500186E-1
8.761924285E0,-1.420500129E-1,-9.688050270E0,-2.539499998E-1
8.772008886E0,-8.505000174E-2,-9.640050888E0,-2.610000074E-1
8.782093740E0,1.695000008E-2,-9.624000549E0,-2.460000068E-1
8.792178434E0,9.795000404E-2,-9.640050888E0,-2.560500205E-1
8.802263050E0,1.080000028E-1,-9.633000374E0,-2.659500241E-1
8.812347670E0,8.595000207E-2,-9.628050804E0,-3.300000131E-1
8.822432504E0,-3.705000132E-2,-9.553950310E0,-3.850500286E-1
8.832517189E0,2.700000070E-2,-9.669000626E0,-2.779500186E-1
8.842602033E0,-4.050000105E-3,-9.705000877E0,-2.820000052E-1
8.852686655E0,-1.050000079E-3,-9.705000877E0,-2.700000107E-1
8.862771346E0,3.600000218E-2,-9.705000877E0,-2.149500102E-1
8.872855963E0,8.895000070E-2,-9.712050438E0,-1.960500032E-1
8.882940802E0,1.540500075E-1,-9.736050606E0,-2.179500163E-1
8.893025511E0,1.750500053E-1,-9.760050774E0,-3.160500228E-1
8.903110146E0,1.560000032E-1,-9.784050941E0,-4.210500121E-1
8.913194995E0,9.795000404E-2,-9.777000427E0,-4.120500088E-1
8.923279689E0,4.605000094E-2,-9.784050941E0,-4.210500121E-1
8.933364519E0,-3.900000080E-2,-9.789000511E0,-4.090500176E-1
8.943449147E0,-1.090500057E-1,-9.813000679E0,-3.780000210E-1
8.953533837E0,-1.090500057E-1,-9.765000343E0,-3.349500299E-1
8.963618460E0,-1.039500013E-1,-9.730950356E0,-3.469500244E-1
8.973703317E0,-9.000000358E-2,-9.741000175E0,-3.970500231E-1
8.983788025E0,-4.695000127E-2,-9.718950272E0,-3.850500286E-1
8.993872636E0,-4.695000127E-2,-9.681000710E0,-3.810000122E-1
9.003957480E0,-7.095000148E-2,-9.645000458E0,-3.589500189E-1
9.014042097E0,-9.000000358E-2,-9.682950020E0,-2.989500165E-1
9.024126784E0,-1.399500072E-1,-9.729000092E0,-3.160500228E-1
9.034211644E0,-1.690500081E-1,-9.742950439E0,-4.039500058E-1
9.044296261E0,-1.900500059E-1,-9.762000084E0,-4.669500291E-1
9.054380961E0,-1.900500059E-1,-9.802950859E0,-4.570500255E-1
9.064465798E0,-1.740000099E-1,-9.832050323E0,-4.669500291E-1
9.074550415E0,-1.519500017E-1,-9.832050323E0,-4.480500221E-1
9.084635105E0,-1.140000075E-1,-9.817050934E0,-4.600500166E-1
9.094719713E0,-1.500000060E-2,-9.820050240E0,-4.429500103E-1
9.104804539E0,4.305000231E-2,-9.777000427E0,-4.260000288E-1
9.114889223E0,7.695000619E-2,-9.738000870E0,-4.399500191E-1
9.124973839E0,1.459500045E-1,-9.738000870E0,-4.830000103E-1
9.135058688E0,1.560000032E-1,-9.738000870E0,-5.310000181E-1
9.145143367E0,1.420500129E-1,-9.753000259E0,-5.479500294E-1
9.155228002E0,8.205000311E-2,-9.760050774E0,-6.079500318E-1
9.165312841E0,5.295000225E-2,-9.801000595E0,-5.959500074E-1
9.175397453E0,6.300000101E-2,-9.801000595E0,-5.599500537E-1
9.185482163E0,4.930500090E-1,-9.736050606E0,-5.770500302E-1
9.195567000E0,-8.295000345E-2,-1.000200081E1,-5.599500537E-1
9.205651612E0,1.200000048E-1,-9.748050690E0,-3.330000043E-1
9.215736287E0,1.849500090E-1,-9.717000008E0,-3.880500197E-1
9.225820891E0,2.760000229E-1,-9.846000671E0,-4.480500221E-1
9.235905735E0,3.619500101E-1,-9.814950943E0,-4.260000288E-1
9.245990434E0,3.640500307E-1,-9.841050148E0,-4.519500136E-1
9.256075279E0,3.090000153E-1,-9.801000595E0,-4.069500268E-1
9.266159900E0,2.089500129E-1,-9.706950188E0,-3.949500322E-1
9.276244595E0,8.400000632E-2,-9.592050552E0,-4.860000312E-1
9.286329441E0,1.905000024E-2,-9.516000748E0,-4.480500221E-1
9.296414059E0,-4.395000264E-2,-9.580050468E0,-2.389500141E-1
9.306498684E0,-1.540500075E-1,-9.658950806E0,-2.389500141E-1
9.316583384E0,-1.710000038E-1,-9.703050613E0,-3.300000131E-1
9.326668245E0,-8.700000495E-2,-9.712050438E0,-3.610500097E-1
9.336752848E0,1.500000060E-2,-9.681000710E0,-3.660000265E-1
9.346837534E0,1.150500029E-1,-9.645000458E0,-3.640500307E-1
9.356922371E0,9.405000508E-2,-9.652050018E0,-3.760500252E-1
9.367007050E0,2.400000021E-2,-9.738000870E0,-3.709500134E-1
9.377091680E0,2.700000070E-2,-9.802950859E0,-4.000500143E-1
9.387176314E0,5.295000225E-2,-9.814950943E0,-4.039500058E-1
9.397261158E0,9.105000645E-2,-9.802950859E0,-4.210500121E-1
9.407345794E0,1.300500035E-1,-9.769950867E0,-4.669500291E-1
9.417430499E0,1.890000105E-1,-9.798000336E0,-4.950000346E-1
9.427515336E0,2.299500108E-1,-9.793950081E0,-5.029500127E-1
9.437599953E0,2.209500074E-1,-9.774000168E0,-5.170500278E-1
9.447684634E0,1.510500014E-1,-9.736050606E0,-5.290500522E-1
9.457769266E0,1.390500069E-1,-9.730950356E0,-4.429500103E-1
9.467854110E0,8.400000632E-2,-9.774000168E0,-3.520500064E-1
9.477938795E0,1.200000010E-2,-9.817050934E0,-3.139500022E-1
9.488023410E0,-9.000000358E-2,-9.874950409E0,-3.540000021E-1
9.498108269E0,-1.930500120E-1,-9.850950241E0,-4.210500121E-1
9.508192892E0,-1.969500035E-1,-9.877050400E0,-4.069500268E-1
9.518277592E0,-1.900500059E-1,-9.930000305E0,-4.140000343E-1
9.528362438E0,-1.810500026E-1,-9.882000923E0,-4.309500158E-1
9.538447060E0,-1.399500072E-1,-9.793950081E0,-3.970500231E-1
9.548531750E0,-1.420500129E-1,-9.670950890E0,-3.370500207E-1
9.558616587E0,-1.350000054E-1,-9.556050301E0,-2.539499998E-1
9.568701194E0,-1.330500096E-1,-9.505950928E0,-2.490000129E-1
9.578785885E0,-2.170500159E-1,-9.535050392E0,-3.109500110E-1
9.588870517E0,-2.639999986E-1,-9.595050812E0,-3.250500262E-1
9.598955370E0,-2.670000196E-1,-9.649950027E0,-3.610500097E-1
9.609039988E0,-2.190000117E-1,-9.718950272E0,-4.429500103E-1
9.619124664E0,-9.000000358E-2,-9.829050064E0,-5.220000148E-1
9.629209305E0,3.900000080E-2,-9.954000473E0,-5.050500035E-1
9.639294164E0,7.395000011E-2,-1.003800011E1,-4.570500255E-1
9.649378796E0,-3.495000303E-2,-9.970950127E0,-5.290500522E-1
9.659463486E0,-3.409500122E-1,-9.814950943E0,-6.199500561E-1
9.669548333E0,-4.609500170E-1,-9.730950356E0,-5.770500302E-1
9.679632969E0,-2.170500159E-1,-9.625950813E0,-4.860000312E-1
9.689717608E0,4.950000439E-3,-9.516000748E0,-4.380000234E-1
9.699802304E0,1.630500108E-1,-9.421950340E0,-3.930000067E-1
9.709887164E0,1.729500145E-1,-9.487050056E0,-2.939999998E-1
9.719971858E0,1.060500070E-1,-9.535050392E0,-3.090000153E-1
9.730056483E0,6.705000252E-2,-9.583050728E0,-3.450000286E-1
9.740141342E0,4.095000029E-2,-9.625950813E0,-3.229500055E-1
9.750225964E0,-1.305000018E-2,-9.721950531E0,-3.880500197E-1
9.760310640E0,-8.295000345E-2,-9.834000587E0,-4.810500145E-1
9.770395491E0,-1.830000132E-1,-9.966000557E0,-4.909500182E-1
9.780480098E0,-2.119500041E-1,-1.007805061E1,-4.950000346E-1
9.790564793E0,-2.089500129E-1,-1.014105034E1,-5.170500278E-1
9.800649421E0,-1.540500075E-1,-1.013805008E1,-4.980000257E-1
9.810734269E0,-8.505000174E-2,-1.003095055E1,-4.690500200E-1
9.820818954E0,-3.495000303E-2,-9.856050491E0,-4.159500301E-1
9.830903570E0,3.900000080E-2,-9.714000702E0,-3.060000241E-1
9.840988170E0,1.510500014E-1,-9.597000122E0,-2.179500163E-1
9.851073010E0,2.250000089E-1,-9.601950645E0,-2.389500141E-1
9.861157695E0,2.350500077E-1,-9.736050606E0,-2.869500220E-1
9.871242310E0,1.729500145E-1,-9.789000511E0,-4.240500331E-1
9.881327144E0,1.300500035E-1,-9.754950523E0,-4.330500066E-1
9.891411737E0,1.510500014E-1,-9.619050026E0,-4.360500276E-1
9.901496403E0,2.205000073E-2,-9.712050438E0,-3.640500307E-1
9.911581240E0,-7.304999977E-2,-9.913050652E0,-2.749500275E-1
9.921665829E0,-8.505000174E-2,-1.007805061E1,-2.440500110E-1
9.931750424E0,1.489500105E-1,-9.991950035E0,-3.880500197E-1
9.941835124E0,4.410000145E-1,-9.585000038E0,-3.280500174E-1
9.951919723E0,4.069500268E-1,-9.421950340E0,-3.060000241E-1
9.962004557E0,4.069500268E-1,-9.385950089E0,-3.660000265E-1
9.972089251E0,5.940000415E-1,-9.262050629E0,-5.599500537E-1
9.982173833E0,1.939500123E-1,-9.288000107E0,-4.069500268E-1
9.992258673E0,-2.050500065E-1,-9.292950630E0,-1.770000011E-1
1.000234329E1,-1.590000093E-1,-9.370050430E0,-4.600500166E-1
1.001242797E1,7.905000448E-2,-9.496950150E0,-7.759500146E-1
1.002251280E1,8.205000311E-2,-9.613950729E0,-6.730500460E-1
1.003259742E1,-2.910000086E-1,-9.738000870E0,-4.999500215E-1
1.004268209E1,-4.729500115E-1,-1.003095055E1,-5.220000148E-1
1.005276693E1,-2.880000174E-1,-1.013805008E1,-8.020500541E-1
1.006285131E1,-1.620000005E-1,-1.025805092E1,-5.890500546E-1
1.007293615E1,-1.260000020E-1,-1.038495064E1,-5.820000172E-1
1.008302084E1,-9.000000358E-2,-1.018605042E1,-4.000500143E-1
1.009310546E1,1.219500080E-1,-1.017900085E1,-4.380000234E-1
1.010319032E1,1.969500035E-1,-1.001895046E1,-4.570500255E-1
1.011327503E1,1.819500029E-1,-9.901050568E0,-4.309500158E-1
1.012335966E1,1.390500069E-1,-9.856050491E0,-5.029500127E-1
1.013344451E1,9.600000083E-2,-9.766950607E0,-5.790000558E-1
1.014352913E1,4.800000042E-2,-9.697950363E0,-6.100500226E-1
1.015361384E1,4.605000094E-2,-9.697950363E0,-5.770500302E-1
1.016369845E1,2.059500068E-1,-9.664050102E0,-5.239500403E-1
1.017378331E1,1.819500029E-1,-9.619050026E0,-4.279500246E-1
1.018386792E1,2.970000207E-1,-9.628050804E0,-3.180000186E-1
1.019395260E1,2.760000229E-1,-9.658950806E0,-3.160500228E-1
1.020403745E1,1.200000010E-2,-9.571050644E0,-4.429500103E-1
1.021412216E1,-3.990000188E-1,-9.489000320E0,-4.240500331E-1
1.022420677E1,-8.149500489E-1,-9.444000244E0,-1.200000048E-1
1.023429139E1,-8.730000257E-1,-9.484950066E0,-4.020000100E-1
1.024437625E1,-7.099500299E-1,-9.607050896E0,-5.430000424E-1
1.025446094E1,-6.280500293E-1,-9.712050438E0,-4.519500136E-1
1.026454555E1,-3.289500177E-1,-9.937050819E0,-3.019500077E-1
1.027463040E1,-2.479500175E-1,-1.002600002E1,-2.989500165E-1
1.028471502E1,-3.990000188E-1,-9.910950661E0,-3.060000241E-1
1.029479971E1,-4.390500188E-1,-9.861000061E0,-1.870500147E-1
1.030488456E1,-4.009500146E-1,-9.834000587E0,-1.339500099E-1
1.031496924E1,-2.620500028E-1,-9.793950081E0,-1.870500147E-1
1.032505387E1,-1.159500033E-1,-9.837000847E0,-3.370500207E-1
1.033513848E1,-6.300000101E-2,-9.889050484E0,-3.930000067E-1
1.034522330E1,-5.595000088E-2,-9.868050575E0,-5.050500035E-1
1.035530801E1,-6.795000285E-2,-9.892050743E0,-5.290500522E-1
1.036539262E1,-1.039500013E-1,-9.868050575E0,-4.399500191E-1
1.037547723E1,-1.500000060E-1,-9.777000427E0,-2.059500068E-1
1.038556210E1,-8.700000495E-2,-9.774000168E0,-8.100000024E-2
1.039564681E1,9.105000645E-2,-9.796050072E0,-1.650000066E-1
1.040573142E1,1.390500069E-1,-9.657000542E0,-1.630500108E-1
1.041581627E1,9.405000508E-2,-9.532950401E0,-5.700000376E-2
1.042590098E1,3.405000269E-2,-9.484950066E0,-4.305000231E-2
1.043598558E1,3.600000218E-2,-9.484950066E0,-1.650000066E-1
1.044607043E1,7.200000435E-2,-9.501000404E0,-3.040500283E-1
1.045615504E1,1.180500090E-1,-9.637950897E0,-2.869500220E-1
1.046623971E1,2.400000095E-1,-9.730950356E0,-1.579500139E-1
1.047632456E1,2.639999986E-1,-9.753000259E0,-1.960500032E-1
1.048640918E1,3.090000153E-1,-9.760050774E0,-1.770000011E-1
1.049649379E1,3.120000064E-1,-9.754950523E0,-1.600500047E-1
1.050657850E1,2.850000262E-1,-9.745950699E0,-1.960500032E-1
1.051666335E1,2.830500007E-1,-9.784050941E0,-1.909500062E-1
1.052674805E1,2.659500241E-1,-9.832050323E0,-2.730000019E-1
1.053683267E1,2.590500116E-1,-9.873000145E0,-3.589500189E-1
1.054691726E1,1.750500053E-1,-9.913050652E0,-3.760500252E-1
1.055700209E1,1.300500035E-1,-9.967950821E0,-3.880500197E-1
1.056708678E1,1.300500035E-1,-1.000695038E1,-4.090500176E-1
1.057717163E1,7.395000011E-2,-9.970950127E0,-4.120500088E-1
1.058725623E1,-7.095000148E-2,-9.880050659E0,-3.900000155E-1
1.059734092E1,-1.020000055E-1,-9.825000763E0,-3.690000176E-1
1.060742554E1,-5.895000324E-2,-9.802950859E0,-3.139500022E-1
1.061751039E1,-6.000000052E-3,-9.841050148E0,-2.869500220E-1
1.062759507E1,5.100000277E-2,-9.874950409E0,-3.019500077E-1
1.063767970E1,1.099500060E-1,-9.856050491E0,-2.800500095E-1
1.064776453E1,1.440000087E-1,-9.822000504E0,-2.749500275E-1
1.065784921E1,2.490000129E-1,-9.801000595E0,-2.869500220E-1
1.066793382E1,3.310500085E-1,-9.786000252E0,-3.589500189E-1
1.067801866E1,4.429500103E-1,-9.826950073E0,-4.020000100E-1
1.068810328E1,4.429500103E-1,-9.798000336E0,-4.480500221E-1
1.069818796E1,2.160000056E-1,-9.670950890E0,-5.719500184E-1
1.070827280E1,-6.300000101E-2,-9.553950310E0,-6.060000062E-1
1.071835740E1,-2.089500129E-1,-9.561000824E0,-5.580000281E-1
1.072844209E1,-3.529500067E-1,-9.549000740E0,-5.430000424E-1
1.073852696E1,-5.250000358E-1,-9.544050217E0,-5.460000038E-1
1.074861156E1,-7.309500575E-1,-9.577950478E0,-5.700000525E-1
1.075869624E1,-8.800500631E-1,-9.628050804E0,-4.930500090E-1
1.076878087E1,-1.042950034E0,-9.646950722E0,-4.210500121E-1
1.077886579E1,-1.141050100E0,-9.631050110E0,-3.469500244E-1
1.078895041E1,-1.213050008E0,-9.607050896E0,-3.210000098E-1
1.079903501E1,-1.210050106E0,-9.633000374E0,-3.109500110E-1
1.080911986E1,-1.122000098E0,-9.694950104E0,-3.349500299E-1
1.081920448E1,-9.949500561E-1,-9.766950607E0,-3.690000176E-1
1.082928917E1,-7.699500322E-1,-9.829050064E0,-3.540000021E-1
1.083937404E1,-5.140500069E-1,-9.883950233E0,-3.949500322E-1
1.084945866E1,-2.380500138E-1,-9.954000473E0,-4.500000179E-1
1.085954335E1,-5.400000140E-2,-9.966000557E0,-4.690500200E-1
1.086962797E1,7.200000435E-2,-9.949050903E0,-4.549500346E-1
1.087971281E1,2.130000144E-1,-9.901050568E0,-4.189500213E-1
1.088979752E1,3.240000010E-1,-9.837000847E0,-3.760500252E-1
1.089988213E1,3.859500289E-1,-9.754950523E0,-3.280500174E-1
1.090996696E1,4.459500313E-1,-9.670950890E0,-3.210000098E-1
1.092005158E1,5.509500504E-1,-9.597000122E0,-2.080500126E-1
1.093013626E1,5.700000525E-1,-9.604050636E0,-5.295000225E-2
1.094022111E1,3.790500164E-1,-9.676050186E0,3.495000303E-2
1.095030572E1,3.619500101E-1,-9.777000427E0,-8.100000024E-2
1.096039041E1,4.069500268E-1,-9.838950157E0,-6.900000572E-2
1.097047527E1,4.429500103E-1,-9.717000008E0,6.405000389E-2
1.098055987E1,5.130000114E-1,-9.504000664E0,-1.150500029E-1
1.099064450E1,5.410500169E-1,-9.649950027E0,-3.229500055E-1
1.100072921E1,7.020000219E-1,-9.865050316E0,-1.819500029E-1
1.101081405E1,6.949500442E-1,-9.805050850E0,-3.019500077E-1
1.102089874E1,6.439500451E-1,-9.777000427E0,-3.469500244E-1
1.103098336E1,5.290500522E-1,-9.814950943E0,-2.629500031E-1
1.104106819E1,3.640500307E-1,-9.766950607E0,-2.110500038E-1
1.105115281E1,3.040500283E-1,-9.669000626E0,-1.960500032E-1
1.106123752E1,2.710500062E-1,-9.583050728E0,-2.110500038E-1
1.107132237E1,2.059500068E-1,-9.553950310E0,-2.939999998E-1
1.108140697E1,7.905000448E-2,-9.621000290E0,-3.210000098E-1
1.109149166E1,-4.200000316E-2,-9.750000000E0,-3.210000098E-1
1.110157651E1,-1.110000089E-1,-9.822000504E0,-3.760500252E-1
1.111166115E1,-1.450500041E-1,-9.865050316E0,-4.380000234E-1
1.112174587E1,-1.740000099E-1,-9.883950233E0,-4.600500166E-1
1.113183048E1,-2.239500135E-1,-9.895950317E0,-4.759500325E-1
1.114191533E1,-2.089500129E-1,-9.874950409E0,-4.669500291E-1
1.115200002E1,-2.329500169E-1,-9.862950325E0,-4.279500246E-1
1.116208465E1,-3.940500319E-1,-9.907950401E0,-4.759500325E-1
1.117216949E1,-4.489500225E-1,-9.928050041E0,-3.829500079E-1
1.118225411E1,-3.960000277E-1,-9.894000053E0,-3.040500283E-1
1.119233878E1,-2.310000062E-1,-9.814950943E0,-3.139500022E-1
1.120242362E1,-1.039500013E-1,-9.766950607E0,-2.700000107E-1
1.121250830E1,-7.950000465E-3,-9.742950439E0,-1.669500023E-1
1.122259291E1,8.895000070E-2,-9.765000343E0,-4.800000042E-2
1.123267774E1,1.489500105E-1,-9.778950691E0,9.000000544E-3
1.124276235E1,2.230500132E-1,-9.790950775E0,-9.000000544E-3
1.125284704E1,2.659500241E-1,-9.765000343E0,-1.000500023E-1
1.126293167E1,2.899500132E-1,-9.717000008E0,-1.909500062E-1
1.127301651E1,2.970000207E-1,-9.694950104E0,-2.299500108E-1
1.128310122E1,2.950500250E-1,-9.657000542E0,-1.990500093E-1
1.129318608E1,3.670500219E-1,-9.667050362E0,-2.179500163E-1
1.130327071E1,4.290000200E-1,-9.693000793E0,-2.419500053E-1
1.131335531E1,4.459500313E-1,-9.705000877E0,-2.869500220E-1
1.132344000E1,4.459500313E-1,-9.705000877E0,-3.300000131E-1
1.133352484E1,4.050000310E-1,-9.670950890E0,-3.019500077E-1
1.134360954E1,3.280500174E-1,-9.685950279E0,-3.330000043E-1
1.135369415E1,2.329500169E-1,-9.736050606E0,-3.450000286E-1
1.136377900E1,1.319999993E-1,-9.777000427E0,-3.760500252E-1
1.137386360E1,2.205000073E-2,-9.829050064E0,-4.429500103E-1
1.138394830E1,-1.095000096E-2,-9.856050491E0,-4.720500112E-1
1.139403291E1,-3.495000303E-2,-9.873000145E0,-5.149500370E-1
1.140411776E1,-7.995000482E-2,-9.895950317E0,-5.700000525E-1
1.141420245E1,-1.420500129E-1,-9.868050575E0,-5.980500579E-1
1.142428730E1,-1.879500151E-1,-9.826950073E0,-5.770500302E-1
1.143437192E1,-1.930500120E-1,-9.760050774E0,-5.359500051E-1
1.144445661E1,-1.879500151E-1,-9.685950279E0,-4.980000257E-1
1.145454123E1,-2.260500044E-1,-9.612000465E0,-4.860000312E-1
1.146462608E1,-1.740000099E-1,-9.552000046E0,-4.909500182E-1
1.147471070E1,-2.020500153E-1,-9.612000465E0,-5.340000391E-1
1.148479538E1,-9.495000541E-2,-9.721950531E0,-6.439500451E-1
1.149488021E1,-2.839500010E-1,-9.750000000E0,-5.820000172E-1
1.150496483E1,-4.990500212E-1,-9.813000679E0,-5.100000501E-1
1.151504952E1,-4.560000300E-1,-9.874950409E0,-4.860000312E-1
1.152513414E1,-3.480000198E-1,-9.919950485E0,-4.830000103E-1
1.153521897E1,-2.430000156E-1,-9.940050125E0,-4.159500301E-1
1.154530367E1,-1.260000020E-1,-9.904050827E0,-4.480500221E-1
1.155538830E1,-7.095000148E-2,-9.873000145E0,-4.600500166E-1
1.156547314E1,-7.095000148E-2,-9.829050064E0,-4.480500221E-1
1.157555783E1,-4.395000264E-2,-9.820050240E0,-5.070000291E-1
1.158564243E1,-1.500000060E-2,-9.786000252E0,-5.790000558E-1
1.159572728E1,-1.995000057E-2,-9.705000877E0,-5.629500151E-1
1.160581190E1,1.695000008E-2,-9.628050804E0,-5.740500093E-1
1.161589659E1,2.400000021E-2,-9.583050728E0,-6.030000448E-1
1.162598120E1,-7.950000465E-3,-9.592050552E0,-5.820000172E-1
1.163606605E1,-6.599999964E-2,-9.640050888E0,-4.860000312E-1
1.164615066E1,-1.900500059E-1,-9.709950447E0,-4.810500145E-1
1.165623534E1,-1.830000132E-1,-9.709950447E0,-4.810500145E-1
1.166632019E1,-1.230000034E-1,-9.741000175E0,-3.660000265E-1
1.167640490E1,-3.000000119E-2,-9.726000786E0,-2.989500165E-1
1.168648953E1,3.900000080E-2,-9.736050606E0,-3.450000286E-1
1.169657413E1,9.795000404E-2,-9.762000084E0,-2.869500220E-1
1.170665898E1,1.579500139E-1,-9.742950439E0,-2.850000262E-1
1.171674367E1,1.729500145E-1,-9.703050613E0,-3.180000186E-1
1.172682830E1,1.699500084E-1,-9.640050888E0,-3.060000241E-1
1.173691315E1,1.939500123E-1,-9.588000298E0,-3.060000241E-1
1.174699784E1,2.089500129E-1,-9.597000122E0,-2.700000107E-1
1.175708245E1,2.400000095E-1,-9.634950638E0,-2.610000074E-1
1.176716707E1,3.040500283E-1,-9.700050354E0,-2.340000123E-1
1.177725192E1,3.949500322E-1,-9.774000168E0,-2.200500071E-1
1.178733660E1,5.080500245E-1,-9.880050659E0,-2.730000019E-1
1.179742145E1,6.370500326E-1,-9.982950211E0,-3.040500283E-1
1.180750607E1,6.750000119E-1,-1.001895046E1,-2.680500150E-1
1.181759069E1,6.040500402E-1,-9.949050903E0,-1.909500062E-1
1.182767537E1,5.080500245E-1,-9.825000763E0,-1.290000081E-1
1.183776022E1,3.979500234E-1,-9.729000092E0,-1.219500080E-1
1.184784483E1,2.490000129E-1,-9.681000710E0,-1.319999993E-1
1.185792950E1,7.005000114E-2,-9.625950813E0,-1.530000120E-1
1.186801412E1,-5.400000140E-2,-9.577950478E0,-1.549500078E-1
1.187809897E1,-1.570500135E-1,-9.588000298E0,-1.630500108E-1
1.188818358E1,-1.950000077E-1,-9.589950562E0,-2.200500071E-1
1.189826827E1,-2.290500104E-1,-9.661950111E0,-2.250000089E-1
1.190835309E1,-2.639999986E-1,-9.729000092E0,-2.200500071E-1
1.191843773E1,-2.760000229E-1,-9.774000168E0,-2.389500141E-1
1.192852235E1,-2.790000141E-1,-9.789000511E0,-3.040500283E-1
1.193860727E1,-2.719500065E-1,-9.790950775E0,-3.930000067E-1
1.194869189E1,-2.880000174E-1,-9.801000595E0,-3.880500197E-1
1.195877652E1,-3.319500089E-1,-9.778950691E0,-3.589500189E-1
1.196886121E1,-3.289500177E-1,-9.724050522E0,-4.399500191E-1
1.197894613E1,-2.530499995E-1,-9.691050529E0,-5.460000038E-1
1.198903065E1,-2.140500098E-1,-9.706950188E0,-5.820000172E-1
1.199911535E1,-1.950000077E-1,-9.729000092E0,-5.980500579E-1
1.200920000E1,-1.849500090E-1,-9.742950439E0,-6.420000196E-1
1.201928483E1,-1.690500081E-1,-9.757950783E0,-6.630000472E-1
1.202936953E1,-1.380000114E-1,-9.772050858E0,-6.300000548E-1
1.203945416E1,-9.495000541E-2,-9.781949997E0,-6.100500226E-1
1.204953900E1,-3.000000119E-2,-9.805050850E0,-5.860500336E-1
1.205962362E1,6.000000238E-2,-9.838950157E0,-5.460000038E-1
1.206970831E1,1.650000066E-1,-9.873000145E0,-5.119500160E-1
1.207979293E1,2.490000129E-1,-9.937050819E0,-4.879500270E-1
1.208987777E1,2.779500186E-1,-9.961050034E0,-5.239500403E-1
1.209996248E1,2.800500095E-1,-9.961050034E0,-5.670000315E-1
1.211004711E1,2.250000089E-1,-9.958950043E0,-5.820000172E-1
1.212013194E1,1.129500046E-1,-9.919950485E0,-6.079500318E-1
1.213021655E1,6.705000252E-2,-9.808050156E0,-5.790000558E-1
1.214030118E1,-3.900000080E-2,-9.682950020E0,-5.290500522E-1
1.215038585E1,-2.359500080E-1,-9.585000038E0,-4.879500270E-1
1.216047069E1,-3.460500240E-1,-9.513000488E0,-4.519500136E-1
1.217055539E1,-1.159500033E-1,-9.601950645E0,-4.000500143E-1
1.218064001E1,-2.479500175E-1,-9.564000130E0,-4.620000124E-1
1.219072484E1,-2.959500253E-1,-9.607050896E0,-4.879500270E-1
1.220080943E1,-4.699500203E-1,-9.657000542E0,-4.620000124E-1
1.221089406E1,-5.250000358E-1,-9.703050613E0,-3.709500134E-1
1.222097875E1,-4.660500288E-1,-9.784050941E0,-4.000500143E-1
1.223106359E1,-3.319500089E-1,-9.834000587E0,-4.500000179E-1
1.224114828E1,-1.999500096E-1,-9.837000847E0,-4.429500103E-1
1.225123288E1,-6.795000285E-2,-9.883950233E0,-3.450000286E-1
1.226131773E1,-1.140000075E-1,-9.877050400E0,-4.519500136E-1
1.227140234E1,3.105000220E-2,-9.940050125E0,-6.319500208E-1
1.228148702E1,-8.295000345E-2,-9.982950211E0,-3.349500299E-1
1.229157164E1,-1.930500120E-1,-9.910950661E0,-3.780000210E-1
1.230165650E1,-5.400000140E-2,-9.832050323E0,-4.500000179E-1
1.231174114E1,1.905000024E-2,-9.784050941E0,-4.549500346E-1
1.232182583E1,1.009500027E-1,-9.790950775E0,-4.909500182E-1
1.233191046E1,1.440000087E-1,-9.693000793E0,-4.980000257E-1
1.234199531E1,1.319999993E-1,-9.619050026E0,-5.359500051E-1
1.235207994E1,1.060500070E-1,-9.589950562E0,-4.860000312E-1
1.236216456E1,1.339500099E-1,-9.604050636E0,-3.040500283E-1
1.237224925E1,1.890000105E-1,-9.619050026E0,-4.800000042E-2
1.238233410E1,3.210000098E-1,-9.568050385E0,1.399500072E-1
1.239241873E1,4.840500355E-1,-9.496950150E0,1.050000042E-1
1.240250340E1,6.040500402E-1,-9.475050926E0,-7.050000131E-3
1.241258803E1,5.700000525E-1,-9.484950066E0,-1.219500080E-1
1.242267289E1,4.579500258E-1,-9.540000916E0,-2.869500220E-1
1.243275760E1,4.360500276E-1,-9.685950279E0,-4.240500331E-1
1.244284245E1,3.880500197E-1,-9.814950943E0,-4.740000367E-1
1.245292705E1,3.280500174E-1,-9.874950409E0,-4.140000343E-1
1.246301166E1,2.920500040E-1,-9.862950325E0,-3.300000131E-1
1.247309633E1,2.779500186E-1,-9.817050934E0,-2.230500132E-1
1.248318118E1,2.970000207E-1,-9.793950081E0,-2.029500157E-1
1.249326579E1,2.970000207E-1,-9.810000420E0,-2.029500157E-1
1.250335039E1,2.830500007E-1,-9.849000931E0,-1.909500062E-1
1.251343510E1,2.370000184E-1,-9.861000061E0,-2.539499998E-1
1.252351972E1,2.059500068E-1,-9.844050407E0,-3.300000131E-1
1.253360457E1,1.990500093E-1,-9.814950943E0,-3.780000210E-1
1.254368925E1,1.339500099E-1,-9.781949997E0,-4.429500103E-1
1.255377384E1,3.405000269E-2,-9.772050858E0,-4.380000234E-1
1.256385847E1,-1.305000018E-2,-9.754950523E0,-4.020000100E-1
1.257394333E1,-1.305000018E-2,-9.754950523E0,-3.469500244E-1
1.258402800E1,3.000000026E-3,-9.772050858E0,-2.749500275E-1
1.259411285E1,3.900000080E-2,-9.769950867E0,-2.440500110E-1
1.260419747E1,8.400000632E-2,-9.801000595E0,-2.749500275E-1
1.261428207E1,1.099500060E-1,-9.844050407E0,-2.800500095E-1
1.262436676E1,9.405000508E-2,-9.882000923E0,-3.469500244E-1
1.263445138E1,4.095000029E-2,-9.934950829E0,-3.640500307E-1
1.264453621E1,1.905000024E-2,-9.934950829E0,-3.250500262E-1
1.265462084E1,7.005000114E-2,-9.874950409E0,-2.539499998E-1
1.266470553E1,1.680000126E-1,-9.814950943E0,-2.110500038E-1
1.267479015E1,2.370000184E-1,-9.748050690E0,-2.010000050E-1
1.268487499E1,2.659500241E-1,-9.700050354E0,-1.890000105E-1
1.269495960E1,2.590500116E-1,-9.673950195E0,-1.990500093E-1
1.270504429E1,2.130000144E-1,-9.628050804E0,-2.299500108E-1
1.271512912E1,1.579500139E-1,-9.619050026E0,-2.680500150E-1
1.272521372E1,9.405000508E-2,-9.621000290E0,-3.280500174E-1
1.273529841E1,4.800000042E-2,-9.637950897E0,-3.760500252E-1
1.274538305E1,4.950000439E-3,-9.676050186E0,-3.780000210E-1
1.275546789E1,-1.500000060E-2,-9.718950272E0,-3.780000210E-1
1.276555247E1,-3.495000303E-2,-9.765000343E0,-3.780000210E-1
1.277563708E1,1.905000024E-2,-9.789000511E0,-3.349500299E-1
1.278572176E1,7.395000011E-2,-9.825000763E0,-2.850000262E-1
1.279580660E1,1.150500029E-1,-9.850950241E0,-2.340000123E-1
1.280589123E1,1.459500045E-1,-9.901050568E0,-2.610000074E-1
1.281597592E1,1.560000032E-1,-9.913050652E0,-2.989500165E-1
1.282606056E1,2.830500007E-1,-9.943950653E0,-2.970000207E-1
1.283614517E1,1.579500139E-1,-9.882000923E0,-3.970500231E-1
1.284623001E1,1.009500027E-1,-9.837000847E0,-3.829500079E-1
1.285631470E1,1.440000087E-1,-9.796050072E0,-3.400500119E-1
1.286639933E1,1.180500090E-1,-9.765000343E0,-3.330000043E-1
1.287648418E1,-7.800000161E-2,-9.688050270E0,-4.020000100E-1
1.288656880E1,-9.705000371E-2,-9.607050896E0,-3.490500152E-1
1.289665349E1,-1.260000020E-1,-9.604050636E0,-3.540000021E-1
1.290673810E1,-1.300500035E-1,-9.561000824E0,-2.850000262E-1
1.291682294E1,-8.700000495E-2,-9.559050560E0,-2.629500031E-1
1.292690756E1,-4.050000105E-3,-9.607050896E0,-2.250000089E-1
1.293699220E1,3.105000220E-2,-9.676050186E0,-1.960500032E-1
1.294707689E1,5.100000277E-2,-9.706950188E0,-2.269500047E-1
1.295716175E1,8.595000207E-2,-9.766950607E0,-2.509500086E-1
1.296724636E1,1.510500014E-1,-9.838950157E0,-2.580000162E-1
1.297733108E1,1.099500060E-1,-9.906000137E0,-2.659500241E-1
1.298741571E1,4.605000094E-2,-9.934950829E0,-2.989500165E-1
1.299750055E1,2.400000021E-2,-9.952050209E0,-3.880500197E-1
1.300758517E1,-3.195000067E-2,-9.943950653E0,-4.720500112E-1
1.301766984E1,-9.195000678E-2,-9.873000145E0,-5.100000501E-1
1.302775445E1,-1.180500090E-1,-9.826950073E0,-4.999500215E-1
1.303783928E1,-1.020000055E-1,-9.778950691E0,-4.620000124E-1
1.304792386E1,-5.895000324E-2,-9.736050606E0,-4.240500331E-1
1.305800856E1,-1.095000096E-2,-9.777000427E0,-2.850000262E-1
1.306809316E1,1.005000062E-2,-9.802950859E0,-1.909500062E-1
1.307817778E1,7.905000448E-2,-9.762000084E0,-1.549500078E-1
1.308826262E1,1.080000028E-1,-9.657000542E0,-1.150500029E-1
1.309834732E1,1.920000017E-1,-9.564000130E0,-1.200000048E-1
1.310843193E1,3.450000286E-1,-9.528000832E0,-1.909500062E-1
1.311851656E1,3.040500283E-1,-9.487050056E0,-2.939999998E-1
1.312860139E1,2.899500132E-1,-9.499050140E0,-2.730000019E-1
1.313868607E1,2.400000095E-1,-9.577950478E0,-3.810000122E-1
1.314877068E1,1.990500093E-1,-9.703050613E0,-4.909500182E-1
1.315885529E1,1.080000028E-1,-9.844050407E0,-5.770500302E-1
1.316894014E1,-6.000000052E-3,-9.904050827E0,-6.649500132E-1
1.317902476E1,-5.100000277E-2,-9.862950325E0,-7.009500265E-1
1.318910948E1,-4.905000329E-2,-9.865050316E0,-7.039500475E-1
1.319919410E1,-1.140000075E-1,-9.931950569E0,-6.799500585E-1
1.320927898E1,-2.170500159E-1,-9.942000389E0,-5.860500336E-1
1.321936359E1,-2.790000141E-1,-9.925050735E0,-4.690500200E-1
1.322944829E1,-2.329500169E-1,-9.919950485E0,-3.780000210E-1
1.323953292E1,-1.780500114E-1,-9.931950569E0,-3.490500152E-1
1.324961757E1,-1.570500135E-1,-9.954000473E0,-2.509500086E-1
1.325970241E1,-1.740000099E-1,-9.892050743E0,-1.650000066E-1
1.326978701E1,-1.519500017E-1,-9.786000252E0,-1.579500139E-1
1.327987171E1,-1.060500070E-1,-9.753000259E0,-1.960500032E-1
1.328995632E1,-1.060500070E-1,-9.649950027E0,-2.389500141E-1
1.330004117E1,-1.420500129E-1,-9.604050636E0,-3.400500119E-1
1.331012579E1,-1.740000099E-1,-9.588000298E0,-4.069500268E-1
1.332021048E1,-1.260000020E-1,-9.549000740E0,-4.189500213E-1
1.333029510E1,-4.395000264E-2,-9.561000824E0,-4.159500301E-1
1.334037996E1,3.405000269E-2,-9.633000374E0,-4.399500191E-1
1.335046460E1,8.400000632E-2,-9.705000877E0,-4.309500158E-1
1.336054931E1,1.319999993E-1,-9.766950607E0,-3.760500252E-1
1.337063392E1,2.299500108E-1,-9.813000679E0,-3.450000286E-1
1.338071876E1,2.280000150E-1,-9.798000336E0,-2.680500150E-1
1.339080336E1,1.890000105E-1,-9.705000877E0,-2.250000089E-1
1.340088803E1,1.800000072E-1,-9.717000008E0,-1.939500123E-1
1.341097264E1,9.795000404E-2,-9.748050690E0,-1.339500099E-1
1.342105750E1,3.105000220E-2,-9.691050529E0,-1.000500023E-1
1.343114210E1,4.950000439E-3,-9.601950645E0,-1.339500099E-1
1.344122672E1,-6.795000285E-2,-9.595050812E0,-2.250000089E-1
1.345131144E1,-7.500000298E-2,-9.619050026E0,-2.610000074E-1
1.346139608E1,-2.505000122E-2,-9.577950478E0,-3.280500174E-1
1.347148092E1,-4.050000105E-3,-9.595050812E0,-4.159500301E-1
1.348156555E1,5.295000225E-2,-9.703050613E0,-4.429500103E-1
1.349165023E1,1.270500124E-1,-9.786000252E0,-4.549500346E-1
1.350173508E1,2.130000144E-1,-9.822000504E0,-4.999500215E-1
1.351181944E1,2.800500095E-1,-9.882000923E0,-5.530500412E-1
1.352190428E1,3.430500031E-1,-9.882000923E0,-6.199500561E-1
1.353198895E1,3.880500197E-1,-9.832050323E0,-6.940500140E-1
1.354207356E1,3.709500134E-1,-9.822000504E0,-6.150000095E-1
1.355215839E1,4.189500213E-1,-9.706950188E0,-5.599500537E-1
1.356224301E1,5.250000358E-1,-9.616050720E0,-5.790000558E-1
1.357232762E1,5.460000038E-1,-9.604050636E0,-5.170500278E-1
1.358241231E1,4.339500070E-1,-9.595050812E0,-4.830000103E-1
1.359249692E1,3.739500046E-1,-9.658950806E0,-4.860000312E-1
1.360258176E1,2.490000129E-1,-9.820050240E0,-4.600500166E-1
1.361266638E1,5.805000290E-2,-9.970950127E0,-4.240500331E-1
1.362275097E1,-1.020000055E-1,-1.008105087E1,-4.830000103E-1
1.363283564E1,-2.430000156E-1,-1.006905079E1,-2.779500186E-1
1.364292026E1,-4.969500303E-1,-1.014300060E1,-1.390500069E-1
1.365300508E1,-6.640500426E-1,-1.005405045E1,-1.909500062E-1
1.366308971E1,-7.120500207E-1,-9.997050285E0,-1.530000120E-1
1.367317432E1,-7.000500560E-1,-9.943950653E0,-3.795000166E-2
1.368325904E1,-5.299500227E-1,-9.649950027E0,-3.280500174E-1
1.369334365E1,-1.519500017E-1,-9.547050476E0,-6.405000389E-2
1.370342850E1,-1.710000038E-1,-9.444000244E0,1.240500063E-1
1.371351313E1,-1.740000099E-1,-9.372000694E0,3.299999982E-2
1.372359784E1,-1.020000055E-1,-9.364950180E0,-3.795000166E-2
1.373368244E1,-1.305000018E-2,-9.420000076E0,-1.909500062E-1
1.374376705E1,5.295000225E-2,-9.568050385E0,-3.300000131E-1
1.375385189E1,7.200000435E-2,-9.714000702E0,-4.480500221E-1
1.376393659E1,7.905000448E-2,-9.856050491E0,-5.170500278E-1
1.377402122E1,8.595000207E-2,-9.963000298E0,-5.430000424E-1
1.378410583E1,1.080000028E-1,-9.987000465E0,-5.530500412E-1
1.379419069E1,1.219500080E-1,-1.001595020E1,-5.290500522E-1
1.380427537E1,1.219500080E-1,-9.966000557E0,-4.500000179E-1
1.381436002E1,1.890000105E-1,-9.856050491E0,-3.570000231E-1
1.382444462E1,2.130000144E-1,-9.781949997E0,-3.300000131E-1
1.383452946E1,8.400000632E-2,-9.781949997E0,-2.730000019E-1
1.384461405E1,4.800000042E-2,-9.664050102E0,-1.909500062E-1
1.385469866E1,1.005000062E-2,-9.616050720E0,-2.200500071E-1
1.386478333E1,1.200000010E-2,-9.645000458E0,-3.250500262E-1
1.387486796E1,2.205000073E-2,-9.681000710E0,-3.829500079E-1
1.388495281E1,-1.995000057E-2,-9.693000793E0,-3.850500286E-1
1.389503744E1,-7.500000298E-2,-9.724050522E0,-4.069500268E-1
1.390512206E1,-1.740000099E-1,-9.754950523E0,-4.450500309E-1
1.391520676E1,-2.260500044E-1,-9.762000084E0,-4.330500066E-1
1.392529138E1,-1.830000132E-1,-9.753000259E0,-3.930000067E-1
1.393537623E1,-9.900000691E-2,-9.754950523E0,-3.490500152E-1
1.394546083E1,-3.705000132E-2,-9.729000092E0,-3.349500299E-1
1.395554546E1,-1.230000034E-1,-9.778950691E0,-2.560500205E-1
1.396563013E1,-1.039500013E-1,-9.750000000E0,-1.939500123E-1
1.397571497E1,-4.905000329E-2,-9.721950531E0,-1.960500032E-1
1.398579959E1,-4.905000329E-2,-9.691050529E0,-2.149500102E-1
1.399588418E1,-3.900000080E-2,-9.685950279E0,-2.340000123E-1
1.400596879E1,-4.050000105E-3,-9.676050186E0,-2.920500040E-1
1.401605349E1,2.400000021E-2,-9.738000870E0,-3.040500283E-1
1.402613811E1,1.905000024E-2,-9.805050850E0,-2.370000184E-1
1.403622296E1,1.695000008E-2,-9.874950409E0,-2.059500068E-1
1.404630758E1,9.795000404E-2,-9.963000298E0,-1.890000105E-1
1.405639220E1,1.849500090E-1,-9.990000725E0,-1.890000105E-1
1.406647689E1,2.850000262E-1,-9.975000381E0,-2.370000184E-1
1.407656151E1,2.880000174E-1,-9.943950653E0,-1.909500062E-1
1.408664636E1,2.830500007E-1,-9.817050934E0,-1.669500023E-1
1.409673097E1,3.120000064E-1,-9.700050354E0,-2.389500141E-1
1.410681568E1,3.349500299E-1,-9.649950027E0,-2.820000052E-1
1.411690028E1,3.859500289E-1,-9.571050644E0,-2.110500038E-1
1.412698512E1,4.140000343E-1,-9.489000320E0,-1.050000042E-1
1.413706974E1,4.530000091E-1,-9.496950150E0,-1.459500045E-1
1.414715437E1,4.429500103E-1,-9.576000214E0,-2.230500132E-1
1.415723901E1,3.210000098E-1,-9.667050362E0,-2.370000184E-1
1.416732371E1,3.040500283E-1,-9.802950859E0,-2.869500220E-1
1.417740857E1,2.710500062E-1,-9.826950073E0,-6.820500493E-1
1.418749298E1,-2.980500162E-1,-1.004700089E1,7.095000148E-2
1.419757781E1,-5.809500217E-1,-9.850950241E0,2.939999998E-1
1.420766244E1,-3.750000298E-1,-9.745950699E0,-1.789500117E-1
1.421774712E1,-3.705000132E-2,-9.805050850E0,-3.450000286E-1
1.422783173E1,1.500000060E-2,-9.789000511E0,-2.419500053E-1
1.423791635E1,-2.295000106E-2,-9.777000427E0,-1.480500102E-1
1.424800118E1,-9.705000371E-2,-9.757950783E0,-9.105000645E-2
1.425808579E1,-6.599999964E-2,-9.760050774E0,-1.650000066E-1
1.426817049E1,7.695000619E-2,-9.693000793E0,-2.800500095E-1
1.427825508E1,1.009500027E-1,-9.669000626E0,-3.019500077E-1
1.428833992E1,4.605000094E-2,-9.682950020E0,-3.660000265E-1
1.429842454E1,-6.795000285E-2,-9.688050270E0,-3.280500174E-1
1.430850917E1,-1.279500127E-1,-9.703050613E0,-2.920500040E-1
1.431859385E1,-3.195000067E-2,-9.748050690E0,-4.789500237E-1
1.432867846E1,2.700000070E-2,-9.826950073E0,-5.050500035E-1
1.433876329E1,-2.700000070E-2,-9.838950157E0,-3.949500322E-1
1.434884790E1,-2.700000070E-2,-9.817050934E0,-2.939999998E-1
1.435893258E1,7.050000131E-3,-9.790950775E0,-2.269500047E-1
1.436901717E1,1.695000008E-2,-9.777000427E0,-1.939500123E-1
1.437910201E1,2.895000204E-2,-9.769950867E0,-1.650000066E-1
1.438918663E1,9.405000508E-2,-9.760050774E0,-1.530000120E-1
1.439927124E1,1.579500139E-1,-9.781949997E0,-1.600500047E-1
1.440935594E1,2.610000074E-1,-9.826950073E0,-2.460000068E-1
1.441944056E1,3.330000043E-1,-9.861000061E0,-3.040500283E-1
1.442952518E1,1.770000011E-1,-9.822000504E0,-2.659500241E-1
1.443961003E1,2.470500171E-1,-9.778950691E0,-3.450000286E-1
1.444969466E1,2.950500250E-1,-9.706950188E0,-3.970500231E-1
1.445977935E1,3.139500022E-1,-9.712050438E0,-3.400500119E-1
1.446986399E1,3.829500079E-1,-9.714000702E0,-3.570000231E-1
1.447994861E1,4.789500237E-1,-9.748050690E0,-4.120500088E-1
1.449003322E1,4.290000200E-1,-9.772050858E0,-3.760500252E-1
1.450011807E1,3.589500189E-1,-9.777000427E0,-2.939999998E-1
1.451020269E1,3.000000119E-1,-9.772050858E0,-2.340000123E-1
1.452028738E1,2.560500205E-1,-9.738000870E0,-2.010000050E-1
1.453037199E1,1.770000011E-1,-9.703050613E0,-2.010000050E-1
1.454045660E1,9.600000083E-2,-9.705000877E0,-2.269500047E-1
1.455054144E1,-1.305000018E-2,-9.714000702E0,-2.749500275E-1
1.456062615E1,-1.380000114E-1,-9.693000793E0,-2.989500165E-1
1.457071076E1,-1.950000077E-1,-9.625950813E0,-3.250500262E-1
1.458079538E1,-1.660500020E-1,-9.612000465E0,-3.420000076E-1
1.459088022E1,-9.000000358E-2,-9.645000458E0,-3.210000098E-1
1.460096484E1,-2.700000070E-2,-9.748050690E0,-2.779500186E-1
1.461104952E1,4.800000042E-2,-9.826950073E0,-2.299500108E-1
1.462113416E1,1.249500066E-1,-9.886950493E0,-2.340000123E-1
1.463121877E1,2.160000056E-1,-9.894000053E0,-2.419500053E-1
1.464130338E1,3.139500022E-1,-9.886950493E0,-2.749500275E-1
1.465138820E1,3.550500274E-1,-9.922950745E0,-3.060000241E-1
1.466147288E1,3.280500174E-1,-9.946950912E0,-3.040500283E-1
1.467155751E1,3.000000119E-1,-9.982950211E0,-2.939999998E-1
1.468164235E1,2.680500150E-1,-9.973050117E0,-2.419500053E-1
1.469172698E1,2.800500095E-1,-9.930000305E0,-1.579500139E-1
1.470181158E1,3.400500119E-1,-9.870000839E0,-1.150500029E-1
1.471189626E1,3.979500234E-1,-9.778950691E0,-8.805000782E-2
1.472198087E1,4.219500124E-1,-9.676050186E0,-4.500000179E-2
1.473206550E1,4.219500124E-1,-9.580050468E0,-5.700000376E-2
1.474215011E1,3.670500219E-1,-9.496950150E0,-9.105000645E-2
1.475223496E1,2.830500007E-1,-9.460950851E0,-1.150500029E-1
1.476231958E1,2.010000050E-1,-9.463050842E0,-1.459500045E-1
1.477240429E1,1.630500108E-1,-9.501000404E0,-1.579500139E-1
1.478248891E1,1.390500069E-1,-9.573000908E0,-1.579500139E-1
1.479257353E1,1.319999993E-1,-9.645000458E0,-1.819500029E-1
1.480265814E1,1.390500069E-1,-9.733950615E0,-1.750500053E-1
1.481274295E1,1.680000126E-1,-9.766950607E0,-1.549500078E-1
1.482282758E1,2.040000111E-1,-9.808050156E0,-1.290000081E-1
1.483291227E1,2.610000074E-1,-9.862950325E0,-1.219500080E-1
1.484299692E1,2.440500110E-1,-9.930000305E0,-1.699500084E-1
1.485308175E1,1.770000011E-1,-9.994950294E0,-2.179500163E-1
1.486316636E1,8.595000207E-2,-9.999000549E0,-2.440500110E-1
1.487325105E1,2.400000021E-2,-9.979950905E0,-2.269500047E-1
1.488333567E1,-1.050000079E-3,-9.931950569E0,-1.990500093E-1
1.489342028E1,1.200000010E-2,-9.877050400E0,-1.870500147E-1
1.490350512E1,4.095000029E-2,-9.798000336E0,-1.630500108E-1
1.491358973E1,7.005000114E-2,-9.721950531E0,-1.120500043E-1
1.492367436E1,8.895000070E-2,-9.664050102E0,-8.595000207E-2
1.493375906E1,8.205000311E-2,-9.612000465E0,-8.805000782E-2
1.494384368E1,-1.050000079E-3,-9.613950729E0,-1.080000028E-1
1.495392830E1,-8.700000495E-2,-9.612000465E0,-9.105000645E-2
1.496401314E1,-1.759500057E-1,-9.565950394E0,-9.600000083E-2
1.497409773E1,-1.710000038E-1,-9.585000038E0,-1.099500060E-1
1.498418242E1,-1.020000055E-1,-9.646950722E0,-1.030500084E-1
1.499426705E1,1.200000010E-2,-9.748050690E0,-1.200000048E-1
1.500435166E1,8.205000311E-2,-9.873000145E0,-1.630500108E-1
1.501443650E1,1.680000126E-1,-9.931950569E0,-2.110500038E-1
1.502452114E1,2.350500077E-1,-9.967950821E0,-2.580000162E-1
1.503460574E1,2.610000074E-1,-9.958950043E0,-3.139500022E-1
1.504469041E1,2.800500095E-1,-9.895950317E0,-3.019500077E-1
1.505477503E1,2.560500205E-1,-9.834000587E0,-2.730000019E-1
1.506485988E1,2.040000111E-1,-9.766950607E0,-2.680500150E-1
1.507494449E1,1.650000066E-1,-9.703050613E0,-2.370000184E-1
1.508502909E1,1.699500084E-1,-9.613950729E0,-2.340000123E-1
1.509511377E1,1.770000011E-1,-9.601950645E0,-2.269500047E-1
1.510519840E1,1.630500108E-1,-9.619050026E0,-1.600500047E-1
1.511528299E1,1.440000087E-1,-9.646950722E0,-1.319999993E-1
1.512536761E1,9.600000083E-2,-9.682950020E0,-8.805000782E-2
1.513545253E1,6.705000252E-2,-9.745950699E0,-7.605000585E-2
1.514553707E1,5.295000225E-2,-9.789000511E0,-4.995000362E-2
1.515562176E1,8.205000311E-2,-9.808050156E0,-4.800000042E-2
1.516570640E1,1.319999993E-1,-9.810000420E0,-5.700000376E-2
1.517579123E1,1.939500123E-1,-9.832050323E0,-9.795000404E-2
1.518587585E1,2.059500068E-1,-9.849000931E0,-1.240500063E-1
1.519596045E1,1.750500053E-1,-9.849000931E0,-1.290000081E-1
1.520604515E1,1.699500084E-1,-9.798000336E0,-1.000500023E-1
1.521612976E1,1.920000017E-1,-9.774000168E0,-7.200000435E-2
1.522621461E1,1.990500093E-1,-9.717000008E0,-3.299999982E-2
1.523629924E1,2.280000150E-1,-9.679050446E0,-9.000000544E-3
1.524638385E1,2.370000184E-1,-9.691050529E0,-3.600000218E-2
1.525646848E1,2.490000129E-1,-9.724050522E0,-1.000500023E-1
1.526655317E1,2.610000074E-1,-9.726000786E0,-1.050000042E-1
1.527663780E1,2.610000074E-1,-9.772050858E0,-8.805000782E-2
1.528672266E1,2.280000150E-1,-9.808050156E0,-9.105000645E-2
1.529680728E1,1.729500145E-1,-9.832050323E0,-1.050000042E-1
1.530689189E1,1.009500027E-1,-9.844050407E0,-8.100000024E-2
1.531697660E1,5.295000225E-2,-9.801000595E0,-5.700000376E-2
1.532706121E1,7.695000619E-2,-9.748050690E0,-6.405000389E-2
1.533714606E1,1.459500045E-1,-9.705000877E0,-9.795000404E-2
1.534723042E1,2.350500077E-1,-9.679050446E0,-1.480500102E-1
1.535731526E1,2.950500250E-1,-9.709950447E0,-2.010000050E-1
1.536739996E1,3.120000064E-1,-9.730950356E0,-2.490000129E-1
1.537748459E1,3.190500140E-1,-9.772050858E0,-2.560500205E-1
1.538756920E1,3.190500140E-1,-9.801000595E0,-2.730000019E-1
1.539765405E1,3.400500119E-1,-9.820050240E0,-3.300000131E-1
1.540773868E1,3.499500155E-1,-9.837000847E0,-3.520500064E-1
1.541782338E1,3.430500031E-1,-9.853050232E0,-3.709500134E-1
1.542790799E1,3.210000098E-1,-9.870000839E0,-3.400500119E-1
1.543799260E1,2.850000262E-1,-9.868050575E0,-2.899500132E-1
1.544807722E1,2.520000041E-1,-9.844050407E0,-2.200500071E-1
1.545816207E1,2.370000184E-1,-9.790950775E0,-2.080500126E-1
1.546824668E1,2.110500038E-1,-9.724050522E0,-1.890000105E-1
1.547833130E1,1.609500051E-1,-9.645000458E0,-1.819500029E-1
1.548841601E1,1.129500046E-1,-9.559050560E0,-1.819500029E-1
1.549850061E1,5.100000277E-2,-9.535050392E0,-1.630500108E-1
1.550858546E1,2.205000073E-2,-9.552000046E0,-1.630500108E-1
1.551867009E1,-1.995000057E-2,-9.561000824E0,-1.510500014E-1
1.552875470E1,-5.100000277E-2,-9.643050194E0,-1.510500014E-1
1.553883940E1,-1.995000057E-2,-9.774000168E0,-1.390500069E-1
1.554892394E1,-1.800000109E-2,-9.873000145E0,-1.530000120E-1
1.555900864E1,-7.950000465E-3,-9.925050735E0,-1.549500078E-1
1.556909327E1,3.000000026E-3,-9.973050117E0,-1.440000087E-1
1.557917811E1,4.800000042E-2,-9.963000298E0,-1.150500029E-1
1.558926272E1,6.495000422E-2,-9.928050041E0,-1.170000061E-1
1.559934732E1,1.579500139E-1,-9.849000931E0,-7.605000585E-2
1.560943201E1,2.779500186E-1,-9.838950157E0,-6.195000187E-2
1.561951663E1,3.690000176E-1,-9.808050156E0,-7.395000011E-2
1.562960147E1,3.829500079E-1,-9.738000870E0,-7.905000448E-2
1.563968610E1,3.859500289E-1,-9.652050018E0,-4.800000042E-2
1.564977072E1,3.709500134E-1,-9.604050636E0,-1.905000024E-2
1.565985541E1,3.739500046E-1,-9.577950478E0,1.950000064E-3
1.566994003E1,3.859500289E-1,-9.604050636E0,-9.000000544E-3
1.568002464E1,4.170000255E-1,-9.670950890E0,-4.305000231E-2
1.569010926E1,4.459500313E-1,-9.772050858E0,-6.405000389E-2
1.570019410E1,4.339500070E-1,-9.850950241E0,-1.200000048E-1
1.571027872E1,4.360500276E-1,-9.906000137E0,-1.770000011E-1
1.572036341E1,4.260000288E-1,-9.946950912E0,-1.410000026E-1
1.573044802E1,3.160500228E-1,-9.868050575E0,-8.805000782E-2
1.574053289E1,3.040500283E-1,-9.706950188E0,-7.200000435E-2
1.575061728E1,2.130000144E-1,-9.607050896E0,-9.600000083E-2
1.576070210E1,2.040000111E-1,-9.588000298E0,-1.099500060E-1
1.577078670E1,2.350500077E-1,-9.577950478E0,-1.270500124E-1
1.578087139E1,2.040000111E-1,-9.597000122E0,-1.669500023E-1
1.579095600E1,1.440000087E-1,-9.693000793E0,-2.340000123E-1
1.580104059E1,8.895000070E-2,-9.745950699E0,-2.320500165E-1
1.581112544E1,3.405000269E-2,-9.820050240E0,-2.059500068E-1
1.582121004E1,3.600000218E-2,-9.858000755E0,-2.370000184E-1
1.583129464E1,2.700000070E-2,-9.913050652E0,-2.700000107E-1
1.584137935E1,6.300000101E-2,-9.940050125E0,-2.250000089E-1
1.585146398E1,1.200000048E-1,-9.987000465E0,-2.080500126E-1
1.586154859E1,1.729500145E-1,-1.001595020E1,-1.579500139E-1
1.587163322E1,2.920500040E-1,-1.000395012E1,-1.150500029E-1
1.588171805E1,3.070500195E-1,-9.940050125E0,-2.400000021E-2
1.589180267E1,2.659500241E-1,-9.874950409E0,8.805000782E-2
1.590188727E1,2.830500007E-1,-9.745950699E0,1.500000060E-1
1.591197197E1,3.739500046E-1,-9.633000374E0,1.429500133E-1
1.592205660E1,4.459500313E-1,-9.553950310E0,9.000000358E-2
1.593214144E1,5.100000501E-1,-9.520950317E0,6.105000153E-2
1.594222607E1,5.610000491E-1,-9.489000320E0,3.705000132E-2
1.595231069E1,4.840500355E-1,-9.523050308E0,4.200000316E-2
1.596239532E1,4.030500054E-1,-9.561000824E0,4.005000368E-2
1.597248001E1,3.139500022E-1,-9.585000038E0,1.395000052E-2
1.598256463E1,2.250000089E-1,-9.625950813E0,-1.200000010E-2
1.599264946E1,1.510500014E-1,-9.673950195E0,-7.200000435E-2
1.600273384E1,-7.950000465E-3,-9.697950363E0,-1.080000028E-1
1.601281868E1,-1.260000020E-1,-9.736050606E0,-9.300000221E-2
1.602290328E1,-1.740000099E-1,-9.801000595E0,-4.995000362E-2
1.603298795E1,-1.710000038E-1,-9.825000763E0,-2.895000204E-2
1.604307257E1,-1.620000005E-1,-9.883950233E0,-4.995000362E-2
1.605315719E1,-1.849500090E-1,-9.906000137E0,-9.600000083E-2
1.606324180E1,-2.119500041E-1,-9.901050568E0,-1.549500078E-1
1.607332667E1,-2.190000117E-1,-9.882000923E0,-2.149500102E-1
1.608341129E1,-2.089500129E-1,-9.882000923E0,-2.560500205E-1
1.609349598E1,-2.260500044E-1,-9.886950493E0,-2.730000019E-1
1.610358060E1,-2.569500208E-1,-9.844050407E0,-3.160500228E-1
1.611366521E1,-2.140500098E-1,-9.786000252E0,-3.370500207E-1
1.612374982E1,-9.900000691E-2,-9.760050774E0,-3.210000098E-1
1.613383444E1,3.000000026E-3,-9.757950783E0,-3.589500189E-1
1.614391930E1,1.369500011E-1,-9.777000427E0,-3.210000098E-1
1.615400392E1,2.059500068E-1,-9.834000587E0,-2.730000019E-1
1.616408861E1,2.830500007E-1,-9.856050491E0,-2.700000107E-1
1.617417316E1,3.090000153E-1,-9.870000839E0,-2.440500110E-1
1.618425787E1,3.210000098E-1,-9.894000053E0,-2.269500047E-1
1.619434274E1,3.000000119E-1,-9.894000053E0,-2.299500108E-1
1.620442736E1,2.179500163E-1,-9.844050407E0,-2.110500038E-1
1.621451200E1,1.420500129E-1,-9.786000252E0,-2.419500053E-1
1.622459663E1,1.510500014E-1,-9.721950531E0,-2.269500047E-1
1.623468130E1,1.729500145E-1,-9.703050613E0,-1.459500045E-1
1.624476592E1,2.089500129E-1,-9.685950279E0,-1.120500043E-1
1.625485053E1,2.110500038E-1,-9.694950104E0,-8.805000782E-2
1.626493535E1,2.250000089E-1,-9.706950188E0,-4.305000231E-2
1.627501998E1,2.419500053E-1,-9.706950188E0,-1.950000064E-3
1.628510460E1,2.230500132E-1,-9.669000626E0,4.500000179E-2
1.629518924E1,1.890000105E-1,-9.621000290E0,8.295000345E-2
1.630527393E1,1.560000032E-1,-9.577950478E0,9.000000358E-2
1.631535853E1,1.849500090E-1,-9.585000038E0,4.695000127E-2
1.632544314E1,2.830500007E-1,-9.613950729E0,-3.105000220E-2
1.633552799E1,3.240000010E-1,-9.679050446E0,-1.240500063E-1
1.634561259E1,3.349500299E-1,-9.729000092E0,-1.909500062E-1
1.635569727E1,3.000000119E-1,-9.772050858E0,-2.419500053E-1
1.636578182E1,2.160000056E-1,-9.805050850E0,-2.580000162E-1
1.637586650E1,7.695000619E-2,-9.813000679E0,-2.869500220E-1
1.638595111E1,-2.505000122E-2,-9.798000336E0,-3.250500262E-1
1.639603572E1,-9.900000691E-2,-9.790950775E0,-3.040500283E-1
1.640612056E1,-1.260000020E-1,-9.802950859E0,-2.939999998E-1
1.641620516E1,-9.195000678E-2,-9.832050323E0,-2.610000074E-1
1.642628986E1,-2.295000106E-2,-9.844050407E0,-2.320500165E-1
1.643637446E1,6.300000101E-2,-9.861000061E0,-1.960500032E-1
1.644645908E1,1.560000032E-1,-9.849000931E0,-1.630500108E-1
1.645654368E1,2.539499998E-1,-9.834000587E0,-8.805000782E-2
1.646662831E1,3.640500307E-1,-9.805050850E0,-7.200000435E-2
1.647671317E1,5.170500278E-1,-9.790950775E0,-3.795000166E-2
1.648679781E1,6.730500460E-1,-9.808050156E0,-4.500000179E-2
1.649688241E1,7.830000520E-1,-9.846000671E0,-1.410000026E-1
1.650696710E1,8.670000434E-1,-9.882000923E0,-2.269500047E-1
1.651705172E1,9.049500227E-1,-9.880050659E0,-3.040500283E-1
1.652713632E1,8.839500546E-1,-9.883950233E0,-3.490500152E-1
1.653722116E1,7.900500298E-1,-9.882000923E0,-3.180000186E-1
1.654730579E1,5.629500151E-1,-9.826950073E0,-2.440500110E-1
1.655739040E1,3.310500085E-1,-9.724050522E0,-1.549500078E-1
1.656747501E1,1.030500084E-1,-9.600000381E0,-2.100000158E-2
1.657755964E1,-1.159500033E-1,-9.511050224E0,1.309500039E-1
1.658764432E1,-2.639999986E-1,-9.407999992E0,2.580000162E-1
1.659772894E1,-3.169500232E-1,-9.397950172E0,3.700500131E-1
1.660781377E1,-3.529500067E-1,-9.442049980E0,3.750000298E-1
1.661789838E1,-3.340500295E-1,-9.544050217E0,2.530499995E-1
1.662798300E1,-2.430000156E-1,-9.631050110E0,1.330500096E-1
1.663806761E1,-1.210500076E-1,-9.736050606E0,4.500000179E-2
1.664815230E1,-7.950000465E-3,-9.774000168E0,-7.905000448E-2
1.665823689E1,1.009500027E-1,-9.826950073E0,-1.219500080E-1
1.666832153E1,1.750500053E-1,-9.868050575E0,-1.530000120E-1
1.667840614E1,2.590500116E-1,-9.849000931E0,-2.130000144E-1
1.668849099E1,3.880500197E-1,-9.856050491E0,-2.629500031E-1
1.669857561E1,5.269500017E-1,-9.873000145E0,-3.229500055E-1
1.670866023E1,6.300000548E-1,-9.883950233E0,-3.490500152E-1
1.671874483E1,6.199500561E-1,-9.910950661E0,-3.349500299E-1
1.672882954E1,6.060000062E-1,-9.907950401E0,-2.370000184E-1
1.673891415E1,5.410500169E-1,-9.865050316E0,-8.100000024E-2
1.674899875E1,4.720500112E-1,-9.784050941E0,3.705000132E-2
1.675908360E1,4.309500158E-1,-9.706950188E0,8.805000782E-2
1.676916820E1,3.979500234E-1,-9.664050102E0,1.020000055E-1
1.677925282E1,3.259500265E-1,-9.646950722E0,7.800000161E-2
1.678933750E1,2.539499998E-1,-9.667050362E0,-4.950000439E-3
1.679942213E1,1.510500014E-1,-9.709950447E0,-4.800000042E-2
1.680950673E1,1.099500060E-1,-9.726000786E0,-6.900000572E-2
1.681959133E1,9.600000083E-2,-9.714000702E0,-5.505000427E-2
1.682967597E1,8.205000311E-2,-9.673950195E0,9.000000544E-3
1.683976079E1,8.595000207E-2,-9.640050888E0,4.200000316E-2
1.684984542E1,7.200000435E-2,-9.643050194E0,6.105000153E-2
1.685993002E1,3.900000080E-2,-9.613950729E0,4.695000127E-2
1.687001462E1,-4.050000105E-3,-9.643050194E0,4.005000368E-2
1.688009931E1,-1.050000079E-3,-9.717000008E0,4.695000127E-2
1.689018394E1,-4.695000127E-2,-9.777000427E0,4.050000105E-3
1.690026878E1,-7.095000148E-2,-9.825000763E0,4.050000105E-3
1.691035341E1,-8.295000345E-2,-9.850950241E0,5.205000192E-2
1.692043804E1,-8.295000345E-2,-9.820050240E0,6.900000572E-2
1.693052267E1,1.005000062E-2,-9.753000259E0,9.300000221E-2
1.694060729E1,1.459500045E-1,-9.718950272E0,9.705000371E-2
1.695069198E1,2.830500007E-1,-9.741000175E0,8.295000345E-2
1.696077660E1,4.260000288E-1,-9.793950081E0,3.000000119E-2
1.697086120E1,5.080500245E-1,-9.849000931E0,-8.595000207E-2
1.698094581E1,5.940000415E-1,-9.991950035E0,-4.305000231E-2
1.699103066E1,6.589500308E-1,-1.005405045E1,6.599999964E-2
1.700111534E1,7.210500240E-1,-1.001100063E1,-7.050000131E-3
1.701119996E1,7.500000596E-1,-9.991950035E0,-1.080000028E-1
1.702128451E1,7.540500164E-1,-9.889050484E0,-1.120500043E-1
1.703136922E1,7.260000110E-1,-9.796050072E0,0.000000000E0
1.704145386E1,6.520500183E-1,-9.724050522E0,1.380000114E-1
1.705153871E1,5.959500074E-1,-9.655050278E0,1.669500023E-1
1.706162334E1,5.800500512E-1,-9.621000290E0,2.070000172E-1
1.707170794E1,5.149500370E-1,-9.600000381E0,3.270000219E-1
1.708179256E1,4.290000200E-1,-9.625950813E0,3.100500107E-1
1.709187725E1,3.379500210E-1,-9.637950897E0,3.030000031E-1
1.710196185E1,2.560500205E-1,-9.645000458E0,3.919500113E-1
1.711204647E1,1.699500084E-1,-9.655050278E0,4.470000267E-1
1.712213106E1,1.129500046E-1,-9.694950104E0,4.369500279E-1
1.713221592E1,9.600000083E-2,-9.712050438E0,3.730500042E-1
1.714230054E1,1.510500014E-1,-9.721950531E0,2.650500238E-1
1.715238516E1,1.729500145E-1,-9.730950356E0,2.310000062E-1
1.716246986E1,1.339500099E-1,-9.741000175E0,2.220000178E-1
1.717255447E1,1.030500084E-1,-9.757950783E0,1.720500141E-1
1.718263908E1,7.200000435E-2,-9.745950699E0,1.600500047E-1
1.719272369E1,4.605000094E-2,-9.709950447E0,1.840500087E-1
1.720280851E1,4.800000042E-2,-9.661950111E0,1.399500072E-1
1.721289311E1,6.705000252E-2,-9.625950813E0,1.020000055E-1
1.722297773E1,6.000000238E-2,-9.625950813E0,1.000500023E-1
1.723306233E1,7.200000435E-2,-9.661950111E0,8.505000174E-2
1.724314696E1,1.319999993E-1,-9.700050354E0,1.260000020E-1
1.725323167E1,2.160000056E-1,-9.805050850E0,1.480500102E-1
1.726331652E1,2.710500062E-1,-9.858000755E0,1.429500133E-1
1.727340115E1,3.210000098E-1,-9.892050743E0,1.380000114E-1
1.728348576E1,3.070500195E-1,-9.963000298E0,1.519500017E-1
1.729357036E1,1.990500093E-1,-1.008105087E1,5.190000534E-1
1.730365499E1,3.930000067E-1,-1.005405045E1,3.649500310E-1
1.731373968E1,5.370000005E-1,-1.000395012E1,-4.995000362E-2
1.732382420E1,5.170500278E-1,-9.801000595E0,-3.349500299E-1
1.733390890E1,3.430500031E-1,-9.703050613E0,-4.159500301E-1
1.734399353E1,3.810000122E-1,-9.733950615E0,5.700000376E-2
1.735407836E1,4.069500268E-1,-9.784050941E0,5.190000534E-1
1.736416298E1,5.490000248E-1,-9.801000595E0,4.639500082E-1
1.737424761E1,7.330500484E-1,-9.754950523E0,2.959500253E-1
1.738433223E1,7.740000486E-1,-9.826950073E0,2.550000250E-1
1.739441690E1,6.990000606E-1,-9.834000587E0,2.580000162E-1
1.740450152E1,6.870000362E-1,-9.802950859E0,1.600500047E-1
1.741458614E1,6.660000086E-1,-9.781949997E0,1.189500093E-1
1.742467073E1,4.890000224E-1,-9.786000252E0,1.020000055E-1
1.743475557E1,4.579500258E-1,-9.762000084E0,6.000000052E-3
1.744484016E1,3.430500031E-1,-9.742950439E0,4.695000127E-2
1.745492478E1,2.400000095E-1,-9.754950523E0,1.330500096E-1
1.746500947E1,1.609500051E-1,-9.748050690E0,1.720500141E-1
1.747509410E1,1.319999993E-1,-9.736050606E0,1.950000077E-1
1.748517872E1,1.030500084E-1,-9.721950531E0,2.530499995E-1
1.749526334E1,1.300500035E-1,-9.712050438E0,3.010500073E-1
1.750534795E1,1.729500145E-1,-9.705000877E0,2.410500050E-1
1.751543281E1,2.370000184E-1,-9.726000786E0,1.810500026E-1
1.752551743E1,2.680500150E-1,-9.784050941E0,1.360500008E-1
1.753560212E1,2.970000207E-1,-9.846000671E0,6.599999964E-2
1.754568674E1,3.040500283E-1,-9.873000145E0,4.500000179E-2
1.755577134E1,3.670500219E-1,-9.862950325E0,6.000000052E-3
1.756585597E1,3.640500307E-1,-9.886950493E0,-1.395000052E-2
1.757594082E1,3.400500119E-1,-9.883950233E0,4.200000316E-2
1.758602543E1,3.499500155E-1,-9.870000839E0,4.500000179E-2
1.759611011E1,3.760500252E-1,-9.849000931E0,4.500000179E-2
1.760619466E1,3.760500252E-1,-9.829050064E0,1.069500074E-1
1.761627934E1,3.240000010E-1,-9.757950783E0,1.789500117E-1
1.762636397E1,2.730000019E-1,-9.649950027E0,2.070000172E-1
1.763644858E1,2.250000089E-1,-9.621000290E0,2.239500135E-1
1.764653342E1,1.650000066E-1,-9.609000206E0,2.820000052E-1
1.765661804E1,1.440000087E-1,-9.609000206E0,3.300000131E-1
1.766670264E1,1.579500139E-1,-9.612000465E0,3.150000274E-1
1.767678727E1,2.659500241E-1,-9.609000206E0,2.980500162E-1
1.768687196E1,4.050000310E-1,-9.667050362E0,2.790000141E-1
1.769695656E1,5.490000248E-1,-9.691050529E0,2.719500065E-1
1.770704118E1,6.829500198E-1,-9.706950188E0,1.860000044E-1
1.771712604E1,7.519500256E-1,-9.712050438E0,1.140000075E-1
1.772721065E1,8.380500674E-1,-9.637950897E0,5.400000140E-2
1.773729527E1,6.130500436E-1,-9.741000175E0,1.800000109E-2
1.774737987E1,5.460000038E-1,-9.802950859E0,-6.000000238E-2
1.775746456E1,4.050000310E-1,-9.798000336E0,-8.595000207E-2
1.776754918E1,1.969500035E-1,-9.954000473E0,-5.295000225E-2
1.777763379E1,1.180500090E-1,-9.978000641E0,-4.095000029E-2
1.778771841E1,1.729500145E-1,-9.861000061E0,4.050000105E-3
1.779780325E1,1.849500090E-1,-9.865050316E0,1.050000042E-1
1.780788786E1,1.770000011E-1,-9.846000671E0,1.879500151E-1
1.781797248E1,1.579500139E-1,-9.753000259E0,2.860500216E-1
1.782805711E1,2.179500163E-1,-9.657000542E0,3.150000274E-1
1.783814182E1,3.160500228E-1,-9.592050552E0,2.910000086E-1
1.784822644E1,4.309500158E-1,-9.561000824E0,1.620000005E-1
1.785831103E1,4.699500203E-1,-9.633000374E0,4.695000127E-2
1.786839564E1,4.650000334E-1,-9.729000092E0,0.000000000E0
1.787848049E1,4.189500213E-1,-9.760050774E0,-4.305000231E-2
1.788856512E1,3.330000043E-1,-9.874950409E0,-9.300000221E-2
1.789864973E1,2.610000074E-1,-9.978000641E0,-1.440000087E-1
1.790873433E1,2.179500163E-1,-9.955950737E0,-1.600500047E-1
1.791881903E1,7.905000448E-2,-9.952050209E0,-1.270500124E-1
1.792890362E1,1.500000060E-2,-9.916050911E0,-3.299999982E-2
1.793898824E1,1.249500066E-1,-9.762000084E0,1.000500023E-1
1.794907311E1,1.030500084E-1,-9.694950104E0,2.170500159E-1
1.795915773E1,1.729500145E-1,-9.616050720E0,2.460000068E-1
1.796924235E1,1.680000126E-1,-9.613950729E0,2.479500175E-1
1.797932697E1,1.750500053E-1,-9.652050018E0,2.700000107E-1
1.798941166E1,2.730000019E-1,-9.540000916E0,1.690500081E-1
1.799949629E1,1.390500069E-1,-9.573000908E0,1.330500096E-1
1.800958089E1,-3.000000119E-2,-9.640050888E0,1.690500081E-1
1.801966573E1,-1.210500076E-1,-9.601950645E0,1.399500072E-1
1.802975010E1,-1.399500072E-1,-9.565950394E0,6.900000572E-2
1.803983495E1,-2.620500028E-1,-9.718950272E0,8.805000782E-2
1.804991956E1,-3.169500232E-1,-9.937050819E0,2.170500159E-1
1.806000418E1,-2.119500041E-1,-1.003500080E1,3.250500262E-1
1.807008888E1,3.600000218E-2,-1.004505062E1,3.940500319E-1
1.808017350E1,3.430500031E-1,-1.001400089E1,3.990000188E-1
1.809025809E1,4.960500300E-1,-9.997050285E0,4.210500121E-1
1.810034273E1,5.269500017E-1,-9.931950569E0,4.249500334E-1
1.811042756E1,4.980000257E-1,-9.834000587E0,3.889500201E-1
1.812051218E1,5.440500379E-1,-9.733950615E0,3.319500089E-1
1.813059677E1,5.800500512E-1,-9.646950722E0,2.359500080E-1
1.814068140E1,6.540000439E-1,-9.597000122E0,1.090500057E-1
1.815076611E1,8.479500413E-1,-9.523050308E0,5.895000324E-2
1.816085072E1,8.329500556E-1,-9.559050560E0,1.189500093E-1
1.817093533E1,8.239500523E-1,-9.600000381E0,1.189500093E-1
1.818101995E1,7.780500650E-1,-9.616050720E0,1.210500076E-1
1.819110458E1,6.799500585E-1,-9.667050362E0,7.095000148E-2
1.820118942E1,6.490500569E-1,-9.733950615E0,5.400000140E-2
1.821127403E1,5.839500427E-1,-9.772050858E0,5.205000192E-2
1.822135873E1,5.730000138E-1,-9.813000679E0,4.500000179E-2
1.823144332E1,5.770500302E-1,-9.873000145E0,8.295000345E-2
1.824152796E1,5.959500074E-1,-9.919950485E0,1.450500041E-1
1.825161279E1,5.820000172E-1,-9.982950211E0,1.240500063E-1
1.826169719E1,5.029500127E-1,-1.002795029E1,9.000000358E-2
1.827178182E1,3.450000286E-1,-1.005405045E1,2.295000106E-2
1.828186666E1,1.440000087E-1,-1.002300072E1,-2.400000021E-2
1.829195128E1,-1.095000096E-2,-9.919950485E0,-6.705000252E-2
1.830203597E1,-6.300000101E-2,-9.676050186E0,-8.805000782E-2
1.831212062E1,-1.500000060E-1,-9.492000580E0,-2.895000204E-2
1.832220521E1,-2.790000141E-1,-9.475050926E0,-9.000000544E-3
1.833228983E1,-3.700500131E-1,-9.480000496E0,-4.305000231E-2
1.834237466E1,-4.300500154E-1,-9.496950150E0,-6.705000252E-2
1.835245929E1,-4.750500321E-1,-9.559050560E0,-1.695000008E-2
1.836254390E1,-4.390500188E-1,-9.612000465E0,4.200000316E-2
1.837262853E1,-3.079500198E-1,-9.681000710E0,4.200000316E-2
1.838271315E1,-1.620000005E-1,-9.762000084E0,5.205000192E-2
1.839279776E1,-2.505000122E-2,-9.820050240E0,4.500000179E-2
1.840288246E1,-3.195000067E-2,-9.907950401E0,2.805000171E-2
1.841296708E1,5.805000290E-2,-9.889050484E0,-9.000000544E-3
1.842305170E1,2.089500129E-1,-9.826950073E0,-5.505000427E-2
1.843313632E1,3.190500140E-1,-9.829050064E0,-1.480500102E-1
1.844322117E1,4.549500346E-1,-9.777000427E0,-2.080500126E-1
1.845330578E1,6.799500585E-1,-9.619050026E0,-2.130000144E-1
1.846339044E1,7.069500089E-1,-9.631050110E0,-1.579500139E-1
1.847347507E1,6.730500460E-1,-9.793950081E0,-1.290000081E-1
1.848355969E1,6.750000119E-1,-9.856050491E0,-4.305000231E-2
1.849364430E1,7.069500089E-1,-9.916050911E0,8.295000345E-2
1.850372894E1,8.190000653E-1,-9.970950127E0,1.669500023E-1
1.851381378E1,9.270000458E-1,-1.003800011E1,2.220000178E-1
1.852389840E1,9.700500369E-1,-1.003095055E1,2.100000083E-1
1.853398301E1,9.679500461E-1,-9.963000298E0,2.100000083E-1
1.854406763E1,9.390000701E-1,-9.841050148E0,2.119500041E-1
1.855415229E1,8.430000544E-1,-9.742950439E0,1.879500151E-1
1.856423691E1,7.069500089E-1,-9.628050804E0,1.240500063E-1
1.857432152E1,6.060000062E-1,-9.541950226E0,7.800000161E-2
1.858440636E1,5.340000391E-1,-9.535050392E0,1.309500039E-1
1.859449072E1,4.000500143E-1,-9.541950226E0,1.789500117E-1
1.860457557E1,2.760000229E-1,-9.585000038E0,1.210500076E-1
1.861466018E1,1.129500046E-1,-9.580050468E0,1.090500057E-1
1.862474478E1,9.795000404E-2,-9.508950233E0,1.690500081E-1
1.863482940E1,4.095000029E-2,-9.501000404E0,1.860000044E-1
1.864491409E1,-3.705000132E-2,-9.492000580E0,1.260000020E-1
1.865499873E1,-1.380000114E-1,-9.505950928E0,1.090500057E-1
1.866508335E1,-2.689500153E-1,-9.616050720E0,8.805000782E-2
1.867516796E1,-2.880000174E-1,-9.793950081E0,6.900000572E-2
1.868525281E1,-2.479500175E-1,-9.982950211E0,1.395000052E-2
1.869533742E1,-1.710000038E-1,-1.016700077E1,-8.400000632E-2
1.870542201E1,-1.995000057E-2,-1.029195023E1,-1.890000105E-1
1.871550664E1,1.489500105E-1,-1.035405064E1,-2.440500110E-1
1.872559125E1,3.090000153E-1,-1.031100082E1,-3.019500077E-1
1.873567587E1,4.290000200E-1,-1.017900085E1,-2.939999998E-1
1.874576056E1,5.940000415E-1,-9.970950127E0,-2.059500068E-1
1.875584519E1,7.710000277E-1,-9.745950699E0,-1.339500099E-1
1.876592983E1,9.319500327E-1,-9.585000038E0,-6.900000572E-2
1.877601467E1,9.559500217E-1,-9.457950592E0,4.500000179E-2
1.878609930E1,9.079500437E-1,-9.391050339E0,1.240500063E-1
1.879618394E1,8.550000191E-1,-9.396000862E0,1.519500017E-1
1.880626857E1,7.639500499E-1,-9.424950600E0,8.295000345E-2
1.881635318E1,7.159500122E-1,-9.561000824E0,3.299999982E-2
1.882643780E1,6.060000062E-1,-9.712050438E0,-1.950000064E-3
1.883652249E1,5.170500278E-1,-9.805050850E0,-2.400000021E-2
1.884660708E1,4.219500124E-1,-9.873000145E0,-4.995000362E-2
1.885669170E1,2.880000174E-1,-9.889050484E0,-5.700000376E-2
1.886677633E1,1.440000087E-1,-9.841050148E0,-6.195000187E-2
1.887686117E1,4.095000029E-2,-9.822000504E0,-2.400000021E-2
1.888694578E1,-4.695000127E-2,-9.820050240E0,4.200000316E-2
1.889703038E1,-5.400000140E-2,-9.817050934E0,3.000000119E-2
1.890711508E1,-2.295000106E-2,-9.808050156E0,3.000000119E-2
1.891719962E1,-5.595000088E-2,-9.810000420E0,3.495000303E-2
1.892728425E1,-9.495000541E-2,-9.798000336E0,6.599999964E-2
1.893736894E1,-1.279500127E-1,-9.784050941E0,1.050000042E-1
1.894745356E1,-7.304999977E-2,-9.765000343E0,6.900000572E-2
1.895753818E1,-3.900000080E-2,-9.741000175E0,2.100000158E-2
1.896762302E1,-1.095000096E-2,-9.694950104E0,9.000000544E-3
1.897770762E1,9.105000645E-2,-9.706950188E0,6.000000052E-3
1.898779224E1,2.440500110E-1,-9.670950890E0,-5.295000225E-2
1.899787684E1,3.469500244E-1,-9.625950813E0,-6.900000572E-2
1.900796146E1,3.709500134E-1,-9.585000038E0,-6.000000238E-2
1.901804615E1,3.430500031E-1,-9.472949982E0,-6.405000389E-2
1.902813078E1,2.970000207E-1,-9.259950638E0,-4.305000231E-2
1.903821539E1,1.300500035E-1,-9.499050140E0,6.000000052E-3
1.904830001E1,-3.195000067E-2,-9.472949982E0,-8.400000632E-2
1.905838460E1,-1.180500090E-1,-9.457950592E0,-1.720500141E-1
1.906846947E1,-1.020000055E-1,-9.760050774E0,-1.579500139E-1
1.907855409E1,-4.050000105E-3,-9.838950157E0,-1.890000105E-1
1.908863869E1,7.005000114E-2,-9.930000305E0,-1.600500047E-1
1.909872330E1,1.080000028E-1,-1.000200081E1,-1.630500108E-1
1.910880792E1,1.200000048E-1,-1.006605053E1,-1.669500023E-1
1.911889252E1,7.395000011E-2,-1.011195087E1,-1.770000011E-1
1.912897723E1,-4.050000105E-3,-1.007400036E1,-1.960500032E-1
1.913906185E1,-6.000000052E-3,-9.999000549E0,-2.509500086E-1
1.914914647E1,-1.095000096E-2,-9.952050209E0,-2.920500040E-1
1.915923110E1,-3.705000132E-2,-9.904050827E0,-2.580000162E-1
1.916931596E1,-1.305000018E-2,-9.832050323E0,-2.340000123E-1
1.917940058E1,-1.305000018E-2,-9.765000343E0,-2.029500157E-1
1.918948520E1,-1.095000096E-2,-9.661950111E0,-1.789500117E-1
1.919956985E1,-4.050000105E-3,-9.601950645E0,-1.459500045E-1
1.920965446E1,-4.695000127E-2,-9.559050560E0,-9.600000083E-2
1.921973908E1,-8.700000495E-2,-9.549000740E0,-4.800000042E-2
1.922982378E1,-9.900000691E-2,-9.609000206E0,1.395000052E-2
1.923990840E1,-1.759500057E-1,-9.726000786E0,4.050000105E-3
1.924999301E1,-2.190000117E-1,-9.778950691E0,-1.950000064E-3
1.926007787E1,-1.780500114E-1,-9.786000252E0,-2.100000158E-2
1.927016227E1,-1.399500072E-1,-9.808050156E0,-3.795000166E-2
1.928024711E1,-5.595000088E-2,-9.801000595E0,-9.600000083E-2
1.929033172E1,5.505000427E-2,-9.717000008E0,-1.170000061E-1
1.930041632E1,1.540500075E-1,-9.616050720E0,-9.795000404E-2
1.931050091E1,2.250000089E-1,-9.609000206E0,-5.505000427E-2
1.932058561E1,3.550500274E-1,-9.573000908E0,-6.405000389E-2
1.933067014E1,5.170500278E-1,-9.552000046E0,-7.905000448E-2
1.934075481E1,5.770500302E-1,-9.640050888E0,-6.705000252E-2
1.935083942E1,5.749500394E-1,-9.670950890E0,-1.339500099E-1
1.936092403E1,5.890500546E-1,-9.748050690E0,-1.770000011E-1
1.937100886E1,4.530000091E-1,-9.865050316E0,-1.549500078E-1
1.938109325E1,4.030500054E-1,-9.931950569E0,-1.339500099E-1
1.939117812E1,3.450000286E-1,-9.963000298E0,-2.130000144E-1
1.940126273E1,2.610000074E-1,-1.001100063E1,-3.109500110E-1
1.941134743E1,7.695000619E-2,-1.008105087E1,-2.989500165E-1
1.942143206E1,-1.090500057E-1,-1.005705070E1,-2.059500068E-1
1.943151667E1,-1.900500059E-1,-9.982950211E0,-1.510500014E-1
1.944160131E1,-1.999500096E-1,-9.883950233E0,-4.500000179E-2
1.945168592E1,-8.700000495E-2,-9.766950607E0,2.100000158E-2
1.946177054E1,-1.300500035E-1,-9.568050385E0,-9.000000544E-3
1.947185538E1,2.205000073E-2,-9.499050140E0,-1.695000008E-2
1.948194008E1,1.319999993E-1,-9.454050064E0,-1.950000064E-3
1.949202462E1,1.609500051E-1,-9.457950592E0,-7.050000131E-3
1.950210926E1,2.419500053E-1,-9.564000130E0,-7.050000131E-3
1.951219387E1,3.619500101E-1,-9.646950722E0,-2.595000155E-2
1.952227851E1,5.250000358E-1,-9.718950272E0,-4.095000029E-2
1.953236320E1,6.730500460E-1,-9.822000504E0,-6.900000572E-2
1.954244781E1,8.140500188E-1,-9.934950829E0,-8.805000782E-2
1.955253242E1,8.670000434E-1,-1.004505062E1,-1.170000061E-1
1.956261706E1,8.449500203E-1,-1.008600044E1,-1.480500102E-1
1.957270190E1,7.950000167E-1,-1.011405087E1,-1.789500117E-1
1.958278651E1,7.330500484E-1,-1.011195087E1,-2.179500163E-1
1.959287113E1,5.839500427E-1,-1.005900002E1,-2.149500102E-1
1.960295573E1,4.720500112E-1,-9.966000557E0,-1.789500117E-1
1.961304037E1,3.040500283E-1,-9.919950485E0,-1.050000042E-1
1.962312498E1,1.369500011E-1,-9.856050491E0,1.605000161E-2
1.963320969E1,2.895000204E-2,-9.769950867E0,1.090500057E-1
1.964329431E1,1.905000024E-2,-9.670950890E0,1.500000060E-1
1.965337892E1,8.595000207E-2,-9.585000038E0,1.429500133E-1
1.966346374E1,5.805000290E-2,-9.552000046E0,1.500000060E-1
1.967354836E1,4.605000094E-2,-9.556050301E0,1.399500072E-1
1.968363295E1,3.900000080E-2,-9.628050804E0,1.210500076E-1
1.969371757E1,5.295000225E-2,-9.631050110E0,9.300000221E-2
1.970380226E1,1.489500105E-1,-9.705000877E0,5.205000192E-2
1.971388689E1,2.470500171E-1,-9.766950607E0,-5.700000376E-2
1.972397149E1,4.380000234E-1,-9.726000786E0,-1.410000026E-1
1.973405609E1,5.320500135E-1,-9.721950531E0,-1.699500084E-1
1.974414070E1,6.010500193E-1,-9.697950363E0,-1.240500063E-1
1.975422555E1,6.540000439E-1,-9.726000786E0,-8.400000632E-2
1.976431018E1,6.559500098E-1,-9.766950607E0,-3.600000218E-2
1.977439478E1,6.730500460E-1,-9.796050072E0,4.500000179E-2
1.978447940E1,6.870000362E-1,-9.838950157E0,1.395000052E-2
1.979456409E1,5.920500159E-1,-9.742950439E0,-7.605000585E-2
1.980464864E1,4.669500291E-1,-9.778950691E0,-3.600000218E-2
1.981473331E1,3.979500234E-1,-9.940050125E0,2.100000158E-2
1.982481792E1,3.520500064E-1,-9.913050652E0,-8.805000782E-2
1.983490255E1,1.729500145E-1,-9.712050438E0,-9.300000221E-2
1.984498718E1,3.105000220E-2,-9.742950439E0,-1.410000026E-1
1.985507178E1,-8.505000174E-2,-9.595050812E0,-1.870500147E-1
1.986515665E1,-1.950000077E-1,-9.535050392E0,-1.909500062E-1
1.987524128E1,-2.290500104E-1,-9.541950226E0,-2.080500126E-1
1.988532589E1,-2.760000229E-1,-9.504000664E0,-1.870500147E-1
1.989541059E1,-1.519500017E-1,-9.535050392E0,-1.530000120E-1
1.990549522E1,-7.095000148E-2,-9.601950645E0,-2.509500086E-1
1.991557984E1,-1.039500013E-1,-9.571050644E0,-4.140000343E-1
1.992566446E1,-5.449500084E-1,-8.107950211E0,-1.840500087E-1
1.993574908E1,8.410500288E-1,-1.066005039E1,9.190500379E-1
1.994583392E1,1.800000072E-1,-1.027695084E1,-1.080000043E0
1.995591852E1,-2.980500162E-1,-9.916050911E0,-1.075049996E0
1.996600311E1,-1.660500020E-1,-1.010700035E1,-1.939500123E-1
1.997608770E1,4.095000029E-2,-1.008600044E1,-2.659500241E-1
1.998617238E1,2.400000095E-1,-1.016700077E1,-4.639500082E-1
1.999625700E1,2.250000089E-1,-1.007595062E1,-3.090000153E-1
2.000634160E1,1.800000072E-1,-9.934950829E0,-3.300000131E-1
2.001642619E1,1.819500029E-1,-9.910950661E0,-2.250000089E-1
2.002651102E1,1.420500129E-1,-9.898950577E0,-2.110500038E-1
2.003659564E1,2.010000050E-1,-9.999000549E0,-3.060000241E-1
2.004668023E1,2.010000050E-1,-1.001400089E1,-3.060000241E-1
