"Time (s)","Gyroscope x (rad/s)","Gyroscope y (rad/s)","Gyroscope z (rad/s)"
1.838925100E-2,-6.756749749E-1,7.507500052E-2,-1.608750038E-2
2.847159600E-2,-4.361499846E-1,-8.882500231E-2,1.361249946E-2
3.855629800E-2,-1.148125008E-1,-2.345750034E-1,1.691249944E-2
4.864122100E-2,-9.487500414E-3,-2.431000024E-1,1.787500083E-2
5.872637500E-2,-1.264999993E-2,-2.228875011E-1,1.471249945E-2
6.881109600E-2,-2.859999985E-2,-2.260500044E-1,8.249999955E-4
7.889600000E-2,-5.733750015E-2,-1.685750037E-1,-3.107500076E-2
8.898090800E-2,-9.143749624E-2,-4.619999975E-2,-4.908749834E-2
9.906583600E-2,-9.666249901E-2,6.022499874E-2,-5.018749833E-2
1.091507540E-1,-6.696250290E-2,1.080750003E-1,-4.592499882E-2
1.192356770E-1,-2.639999986E-2,1.240250021E-1,-4.386249930E-2
1.293206150E-1,-1.374999993E-2,1.399749964E-1,-4.056249931E-2
1.394055390E-1,-2.639999986E-2,1.538625062E-1,-3.959999979E-2
1.494904520E-1,-2.969999984E-2,1.410750002E-1,-3.313750029E-2
1.595754040E-1,-5.733750015E-2,1.071124971E-1,-1.608750038E-2
1.696603410E-1,-1.062875018E-1,4.963750020E-2,-1.374999993E-4
1.797451890E-1,-1.285624951E-1,-1.003750041E-2,1.361249946E-2
1.898301680E-1,-1.413500011E-1,-7.067500055E-2,4.028749838E-2
1.999151030E-1,-1.776500046E-1,-1.292500049E-1,6.682500243E-2
2.100000260E-1,-2.084500045E-1,-1.589500010E-1,8.277499676E-2
2.200849730E-1,-2.116124928E-1,-1.728374958E-1,1.072499976E-1
2.301698860E-1,-2.030874938E-1,-1.845249981E-1,1.561999917E-1
2.402548190E-1,-2.392500043E-1,-1.813624948E-1,1.647250056E-1
2.503397270E-1,-2.765125036E-1,-1.121999994E-1,1.168750003E-1
2.604245740E-1,-2.169750035E-1,-3.231250122E-2,9.872499853E-2
2.705095100E-1,-1.222374961E-1,1.979999989E-2,8.703749627E-2
2.805944470E-1,-7.755000144E-2,4.001250118E-2,1.083500013E-1
2.906793600E-1,-1.581249945E-2,1.677500010E-1,8.497499675E-2
3.007642780E-1,-6.902500242E-2,1.836999953E-1,6.366249919E-2
3.108492160E-1,-8.181250095E-2,1.836999953E-1,7.424999774E-2
3.209341100E-1,-7.328750193E-2,2.347124964E-1,4.881250113E-2
3.310190390E-1,-8.923749626E-2,2.528625131E-1,2.639999986E-2
3.411039630E-1,-9.666249901E-2,2.304500043E-1,-2.337499987E-3
3.511888870E-1,-1.159124970E-1,2.304500043E-1,-3.217500076E-2
3.612738340E-1,-1.307625026E-1,2.688125074E-1,-6.407500058E-2
3.713587570E-1,-9.996250272E-2,3.071750104E-1,-7.150000334E-2
3.814436800E-1,-2.433750033E-2,3.294500113E-1,-5.555000156E-2
3.915283720E-1,3.946249932E-2,3.411374986E-1,-5.018749833E-2
4.016132690E-1,3.849999979E-2,3.496625125E-1,-3.629999980E-2
4.116984370E-1,-2.543750033E-2,3.294500113E-1,-3.533750027E-2
4.217833430E-1,-2.749999985E-2,3.029125035E-1,-2.997500077E-2
4.318680170E-1,-2.749999985E-2,2.986499965E-1,-1.828750037E-2
4.419531490E-1,-3.492499888E-2,3.220250010E-1,-4.399999976E-3
4.520378430E-1,-5.733750015E-2,3.561249971E-1,9.349999949E-3
4.621227690E-1,-7.012499869E-2,3.667125106E-1,2.213750035E-2
4.722077020E-1,-9.459999949E-2,3.911874890E-1,5.087499972E-3
4.822926100E-1,-1.116499975E-1,4.135999978E-1,-7.562499959E-3
4.923775330E-1,-1.009249985E-1,4.230875075E-1,-1.086249948E-2
5.024624570E-1,-8.923749626E-2,4.305124879E-1,-1.086249948E-2
5.125473800E-1,-8.497499675E-2,4.295499921E-1,-8.662499487E-3
5.226322430E-1,-8.291249722E-2,4.219875038E-1,-9.762499481E-3
5.327171490E-1,-7.328750193E-2,4.178625047E-1,-9.762499481E-3
5.428021540E-1,-6.366249919E-2,4.305124879E-1,-1.086249948E-2
5.528870740E-1,-6.792499870E-2,4.464625120E-1,-1.512499992E-2
5.629719730E-1,-7.438749820E-2,4.549874961E-1,-1.938750036E-2
5.730568040E-1,-6.902500242E-2,4.540250003E-1,-1.512499992E-2
5.831417440E-1,-5.733750015E-2,4.497624934E-1,-7.562499959E-3
5.932266470E-1,-5.417500064E-2,4.444000125E-1,-1.374999993E-4
6.033115760E-1,-6.366249919E-2,4.369750023E-1,1.044999994E-2
6.133965230E-1,-6.586249918E-2,4.252874851E-1,1.787500083E-2
6.234814460E-1,-6.792499870E-2,4.124999940E-1,2.103750035E-2
6.335663690E-1,-7.548750192E-2,3.986124992E-1,2.007500082E-2
6.436512870E-1,-8.071249723E-2,3.806000054E-1,2.323750034E-2
6.537359860E-1,-8.497499675E-2,3.624500036E-1,2.956249937E-2
6.638208880E-1,-9.033749998E-2,3.465000093E-1,3.808749840E-2
6.739060710E-1,-9.776250273E-2,3.379749954E-1,4.344999790E-2
6.839907420E-1,-1.051874980E-1,3.262875080E-1,4.771250114E-2
6.940756630E-1,-1.148125008E-1,3.177624941E-1,4.881250113E-2
7.041605860E-1,-1.254000068E-1,2.910875082E-1,5.197500065E-2
7.142455180E-1,-1.370874941E-1,2.400749922E-1,5.513750017E-2
7.243304360E-1,-1.552374959E-1,1.655499935E-1,5.513750017E-2
7.344153740E-1,-1.700875014E-1,9.858749807E-2,4.977500066E-2
7.445002420E-1,-1.828749925E-1,6.655000150E-2,3.712499887E-2
7.545852400E-1,-1.978625059E-1,5.816249922E-2,2.639999986E-2
7.646701790E-1,-2.073500007E-1,3.891250119E-2,1.787500083E-2
7.747550450E-1,-2.041874975E-1,3.038750030E-2,6.187499966E-3
7.848399570E-1,-1.871374995E-1,3.781250119E-2,-8.662499487E-3
7.949248800E-1,-1.648624986E-1,3.781250119E-2,-2.144999988E-2
8.050098030E-1,-1.392875016E-1,2.089999989E-2,-2.681249939E-2
8.150947350E-1,-1.083500013E-1,-5.774999969E-3,-2.681249939E-2
8.251796680E-1,-7.122500241E-2,-3.561250120E-2,-2.461249940E-2
8.352643810E-1,-3.492499888E-2,-5.252499878E-2,-2.254999988E-2
8.453492790E-1,-1.044999994E-2,-5.788749829E-2,-1.292499993E-2
8.554342260E-1,1.072499994E-2,-7.809999585E-2,-1.237499993E-3
8.655191590E-1,2.997500077E-2,-1.057374999E-1,7.287499961E-3
8.756039920E-1,4.276249930E-2,-1.324124932E-1,9.349999949E-3
8.856889950E-1,4.276249930E-2,-1.685750037E-1,1.361249946E-2
8.957739250E-1,2.571249940E-2,-2.143625021E-1,1.581249945E-2
9.058588530E-1,1.374999993E-4,-2.622124851E-1,1.154999994E-2
9.159436990E-1,-2.433750033E-2,-3.005749881E-1,5.087499972E-3
9.260286200E-1,-5.733750015E-2,-3.282124996E-1,3.024999984E-3
9.361135440E-1,-9.033749998E-2,-3.526875079E-1,7.287499961E-3
9.461984670E-1,-1.116499975E-1,-3.708375096E-1,1.361249946E-2
9.562833940E-1,-1.264999956E-1,-3.740000129E-1,1.787500083E-2
9.663683170E-1,-1.285624951E-1,-3.675374985E-1,2.213750035E-2
9.764530110E-1,-1.201749966E-1,-3.708375096E-1,3.066249937E-2
9.865381590E-1,-1.020250022E-1,-3.718000054E-1,3.712499887E-2
9.966228330E-1,-7.644999772E-2,-3.643749952E-1,3.918749839E-2
1.006707764E0,-4.881250113E-2,-3.515875041E-1,3.602499887E-2
1.016792678E0,-2.543750033E-2,-3.271124959E-1,3.176249936E-2
1.026877601E0,-1.924999990E-3,-2.898499966E-1,2.639999986E-2
1.036962539E0,1.718750037E-2,-2.505249977E-1,2.323750034E-2
1.047047452E0,3.093750030E-2,-2.143625021E-1,2.529999986E-2
1.057132300E0,4.276249930E-2,-1.834249943E-1,3.176249936E-2
1.067217235E0,5.335000157E-2,-1.654125005E-1,4.028749838E-2
1.077302163E0,5.018749833E-2,-1.537249982E-1,5.197500065E-2
1.087387067E0,3.946249932E-2,-1.494625062E-1,6.792499870E-2
1.097471990E0,2.351249941E-2,-1.483625025E-1,8.071249723E-2
1.107556914E0,1.182499994E-2,-1.355749965E-1,8.813749999E-2
1.117641842E0,7.562499959E-3,-1.121999994E-1,9.033749998E-2
1.127726536E0,7.562499959E-3,-7.699999958E-2,8.181250095E-2
1.137811452E0,7.562499959E-3,-2.062499896E-2,6.586249918E-2
1.147896375E0,3.299999982E-3,3.891250119E-2,4.977500066E-2
1.157981269E0,-1.154999994E-2,7.617499679E-2,3.492499888E-2
1.168066173E0,-3.066249937E-2,9.102500230E-2,2.433750033E-2
1.178151026E0,-5.197500065E-2,9.528750181E-2,1.787500083E-2
1.188235947E0,-6.902500242E-2,8.153750002E-2,1.787500083E-2
1.198320866E0,-7.755000144E-2,5.279999971E-2,2.103750035E-2
1.208405789E0,-8.291249722E-2,4.537500069E-2,2.323750034E-2
1.218490702E0,-8.717499673E-2,4.853750020E-2,2.749999985E-2
1.228575615E0,-7.864999771E-2,3.781250119E-2,2.956249937E-2
1.238660543E0,-5.843750015E-2,1.127499994E-2,2.433750033E-2
1.248745452E0,-4.028749838E-2,-1.539999992E-2,1.154999994E-2
1.258830375E0,-3.066249937E-2,-4.936249927E-2,1.924999990E-3
1.268915055E0,-2.639999986E-2,-8.772499859E-2,-6.599999964E-3
1.278999986E0,-2.749999985E-2,-1.196250021E-1,-1.608750038E-2
1.289084899E0,-3.712499887E-2,-1.366750002E-1,-2.364999987E-2
1.299169812E0,-4.455000162E-2,-1.335124969E-1,-2.571249940E-2
1.309254735E0,-4.564999789E-2,-1.185249984E-1,-2.254999988E-2
1.319339654E0,-4.771250114E-2,-1.036750004E-1,-1.938750036E-2
1.329424497E0,-4.771250114E-2,-9.088750184E-2,-1.938750036E-2
1.339509418E0,-4.344999790E-2,-8.346249908E-2,-1.938750036E-2
1.349594346E0,-4.028749838E-2,-8.346249908E-2,-2.364999987E-2
1.359679050E0,-3.396249935E-2,-9.404999763E-2,-2.887500077E-2
1.369763976E0,-1.897500083E-2,-1.153625026E-1,-3.217500076E-2
1.379848889E0,1.374999993E-4,-1.430000067E-1,-3.217500076E-2
1.389933817E0,1.608750038E-2,-1.622499973E-1,-2.997500077E-2
1.400018740E0,1.828750037E-2,-1.824624985E-1,-2.034999989E-2
1.410103668E0,1.182499994E-2,-2.036374956E-1,-7.562499959E-3
1.420188517E0,4.399999976E-3,-2.239875048E-1,8.387500420E-3
1.430273419E0,1.237499993E-3,-2.345750034E-1,1.787500083E-2
1.440358342E0,-7.287499961E-3,-2.345750034E-1,2.213750035E-2
1.450443269E0,-1.691249944E-2,-2.186249942E-1,2.103750035E-2
1.460528202E0,-2.749999985E-2,-1.984124929E-1,1.897500083E-2
1.470613115E0,-3.918749839E-2,-1.898874938E-1,1.581249945E-2
1.480697809E0,-5.307500064E-2,-1.802625060E-1,1.581249945E-2
1.490782731E0,-6.049999967E-2,-1.748999953E-1,1.787500083E-2
1.500867654E0,-6.696250290E-2,-1.674750000E-1,2.103750035E-2
1.510952582E0,-6.792499870E-2,-1.494625062E-1,2.103750035E-2
1.521037485E0,-6.270000339E-2,-1.164624989E-1,1.691249944E-2
1.531122323E0,-5.623750016E-2,-9.088750184E-2,1.581249945E-2
1.541207244E0,-4.675000161E-2,-7.603749633E-2,1.044999994E-2
1.551292167E0,-3.602499887E-2,-6.957499683E-2,1.924999990E-3
1.561377095E0,-2.543750033E-2,-6.861250103E-2,-4.399999976E-3
1.571462027E0,-1.374999993E-2,-7.699999958E-2,-6.599999964E-3
1.581546975E0,-4.124999978E-3,-8.346249908E-2,-6.599999964E-3
1.591631898E0,3.299999982E-3,-8.346249908E-2,-3.437499981E-3
1.601716841E0,1.402499992E-2,-8.236250281E-2,-2.337499987E-3
1.611801530E0,2.254999988E-2,-7.493750006E-2,8.249999955E-4
1.621886470E0,2.351249941E-2,-6.104999781E-2,8.249999955E-4
1.631971393E0,1.924999990E-2,-4.936249927E-2,3.024999984E-3
1.642056321E0,1.718750037E-2,-3.657500073E-2,3.024999984E-3
1.652141155E0,9.762499481E-3,-3.341250122E-2,8.249999955E-4
1.662226057E0,1.237499993E-3,-3.561250120E-2,-1.374999993E-4
1.672310975E0,-1.924999990E-3,-3.657500073E-2,-2.337499987E-3
1.682395898E0,-6.187499966E-3,-3.231250122E-2,-4.399999976E-3
1.692480826E0,-9.487500414E-3,-1.746249944E-2,-6.599999964E-3
1.702565525E0,-6.187499966E-3,6.874999963E-4,-7.562499959E-3
1.712650451E0,1.374999993E-4,1.979999989E-2,-6.599999964E-3
1.722735388E0,7.562499959E-3,3.781250119E-2,-3.437499981E-3
1.732820326E0,1.608750038E-2,5.169999972E-2,3.024999984E-3
1.742905174E0,2.144999988E-2,6.655000150E-2,7.287499961E-3
1.752990086E0,1.924999990E-2,7.727500051E-2,7.287499961E-3
1.763075009E0,9.762499481E-3,8.153750002E-2,6.187499966E-3
1.773159932E0,1.374999993E-4,7.081250101E-2,5.087499972E-3
1.783244845E0,-9.487500414E-3,5.486249924E-2,7.287499961E-3
1.793329782E0,-1.691249944E-2,4.633750021E-2,6.187499966E-3
1.803414468E0,-2.323750034E-2,4.317500070E-2,4.124999978E-3
1.813499393E0,-2.323750034E-2,4.111250117E-2,4.124999978E-3
1.823584331E0,-2.323750034E-2,3.355000168E-2,3.024999984E-3
1.833669188E0,-2.007500082E-2,2.722499892E-2,-1.374999993E-4
1.843754100E0,-1.471249945E-2,1.979999989E-2,1.924999990E-3
1.853839018E0,-9.487500414E-3,1.237499993E-2,6.187499966E-3
1.863923941E0,-3.024999984E-3,1.127499994E-2,6.187499966E-3
1.874008864E0,1.237499993E-3,1.237499993E-2,-1.374999993E-4
1.884093564E0,1.374999993E-4,8.112499490E-3,-6.599999964E-3
1.894178485E0,1.237499993E-3,-3.574999981E-3,-1.292499993E-2
1.904263422E0,-9.624999948E-4,-1.952499896E-2,-1.608750038E-2
1.914348345E0,-1.924999990E-3,-3.451250121E-2,-1.402499992E-2
1.924433239E0,1.237499993E-3,-4.509999976E-2,-4.399999976E-3
1.934518167E0,-1.924999990E-3,-5.788749829E-2,5.087499972E-3
1.944603005E0,-1.044999994E-2,-6.957499683E-2,1.471249945E-2
1.954687927E0,-2.117500082E-2,-7.383749634E-2,2.007500082E-2
1.964772846E0,-2.639999986E-2,-6.215000153E-2,1.897500083E-2
1.974857526E0,-2.969999984E-2,-4.193750024E-2,1.361249946E-2
1.984942437E0,-3.066249937E-2,-3.024999984E-2,3.024999984E-3
1.995027360E0,-2.969999984E-2,-2.488750033E-2,-3.437499981E-3
2.005112269E0,-2.749999985E-2,-1.856249943E-2,-5.499999970E-3
2.015197187E0,-2.433750033E-2,-1.539999992E-2,-5.499999970E-3
2.025282110E0,-1.897500083E-2,-1.209999993E-2,-2.337499987E-3
2.035366973E0,-8.387500420E-3,-4.674999975E-3,4.124999978E-3
2.045451665E0,-9.624999948E-4,9.074999951E-3,1.044999994E-2
2.055536808E0,2.199999988E-3,1.979999989E-2,1.264999993E-2
2.065621502E0,6.462499965E-3,3.464999795E-2,1.264999993E-2
2.075706428E0,2.199999988E-3,5.706249923E-2,1.471249945E-2
2.085791276E0,-6.187499966E-3,7.301250100E-2,1.897500083E-2
2.095876198E0,-1.044999994E-2,7.411249727E-2,2.323750034E-2
2.105961121E0,-8.387500420E-3,7.301250100E-2,2.213750035E-2
2.116046034E0,-1.924999990E-3,8.896250278E-2,1.787500083E-2
2.126130946E0,2.199999988E-3,1.197625026E-1,1.264999993E-2
2.136215860E0,3.299999982E-3,1.570249945E-1,9.349999949E-3
2.146300554E0,2.199999988E-3,1.740749925E-1,8.387500420E-3
2.156385489E0,3.299999982E-3,1.687124968E-1,3.024999984E-3
2.166470417E0,8.662499487E-3,1.495999992E-1,-3.437499981E-3
2.176555271E0,1.498750038E-2,1.219625026E-1,-8.662499487E-3
2.186640187E0,2.034999989E-2,8.676250279E-2,-3.437499981E-3
2.196725115E0,2.461249940E-2,6.022499874E-2,8.249999955E-4
2.206809818E0,3.093750030E-2,5.059999973E-2,-3.437499981E-3
2.216894754E0,4.056249931E-2,5.169999972E-2,-1.292499993E-2
2.226979677E0,5.018749833E-2,5.279999971E-2,-2.364999987E-2
2.237064525E0,5.128749833E-2,4.111250117E-2,-2.997500077E-2
2.247149446E0,4.056249931E-2,1.663750038E-2,-2.997500077E-2
2.257234370E0,2.777500078E-2,-1.003750041E-2,-2.144999988E-2
2.267319297E0,7.562499959E-3,-3.341250122E-2,-1.182499994E-2
2.277404220E0,-1.264999993E-2,-5.252499878E-2,-1.237499993E-3
2.287488909E0,-2.859999985E-2,-6.435000151E-2,8.387500420E-3
2.297573854E0,-3.066249937E-2,-6.751249731E-2,1.471249945E-2
2.307658793E0,-2.323750034E-2,-6.531249732E-2,1.361249946E-2
2.317743637E0,-9.487500414E-3,-6.435000151E-2,5.087499972E-3
2.327828544E0,2.199999988E-3,-6.008749828E-2,-5.499999970E-3
2.337913471E0,1.292499993E-2,-5.582499877E-2,-1.828750037E-2
2.347998394E0,1.828750037E-2,-5.252499878E-2,-2.461249940E-2
2.358083083E0,1.924999990E-2,-5.046249926E-2,-2.364999987E-2
2.368168014E0,1.718750037E-2,-4.936249927E-2,-1.828750037E-2
2.378252933E0,1.402499992E-2,-5.156249925E-2,-9.762499481E-3
2.388337791E0,8.662499487E-3,-5.362499878E-2,8.249999955E-4
2.398422688E0,3.299999982E-3,-4.826249927E-2,9.349999949E-3
2.408507611E0,-1.924999990E-3,-4.083750024E-2,1.897500083E-2
2.418592305E0,-1.924999990E-3,-3.561250120E-2,2.213750035E-2
2.428677197E0,1.374999993E-4,-3.341250122E-2,2.213750035E-2
2.438762134E0,1.072499994E-2,-3.341250122E-2,2.007500082E-2
2.448846983E0,2.667500079E-2,-3.024999984E-2,1.361249946E-2
2.458931996E0,3.629999980E-2,-2.282499894E-2,5.087499972E-3
2.469016839E0,3.946249932E-2,-2.062499896E-2,1.924999990E-3
2.479101745E0,4.056249931E-2,-1.539999992E-2,-2.337499987E-3
2.489186449E0,3.313750029E-2,-4.674999975E-3,-9.762499481E-3
2.499271283E0,2.254999988E-2,7.012499962E-3,-2.144999988E-2
2.509356207E0,1.924999990E-2,1.017499994E-2,-2.791249938E-2
2.519441149E0,2.254999988E-2,8.112499490E-3,-3.217500076E-2
2.529526058E0,2.461249940E-2,8.112499490E-3,-3.217500076E-2
2.539610752E0,2.571249940E-2,1.759999990E-2,-2.997500077E-2
2.549695673E0,2.667500079E-2,2.942499891E-2,-2.887500077E-2
2.559780577E0,2.777500078E-2,3.464999795E-2,-2.887500077E-2
2.569865425E0,2.997500077E-2,3.038750030E-2,-2.254999988E-2
2.579950356E0,3.313750029E-2,2.089999989E-2,-1.608750038E-2
2.590035294E0,3.629999980E-2,5.912499968E-3,-3.437499981E-3
2.600119973E0,4.592499882E-2,-5.774999969E-3,7.287499961E-3
2.610204889E0,5.444999784E-2,-6.874999963E-3,7.287499961E-3
2.620289737E0,5.967500061E-2,-4.124999978E-4,8.387500420E-3
2.630374673E0,5.128749833E-2,-5.774999969E-3,1.361249946E-2
2.640459586E0,3.629999980E-2,-1.113750041E-2,2.103750035E-2
2.650544481E0,1.608750038E-2,-1.429999992E-2,2.529999986E-2
2.660629195E0,-1.154999994E-2,-1.319999993E-2,2.859999985E-2
2.670714120E0,-3.286249936E-2,-6.874999963E-3,2.639999986E-2
2.680799013E0,-4.028749838E-2,-1.512499992E-3,2.213750035E-2
2.690883861E0,-4.455000162E-2,-3.574999981E-3,2.007500082E-2
2.700968579E0,-4.564999789E-2,-3.574999981E-3,1.471249945E-2
2.711053495E0,-3.286249936E-2,4.949999973E-3,4.124999978E-3
2.721138427E0,-1.581249945E-2,1.443750039E-2,-3.437499981E-3
2.731223369E0,-3.024999984E-3,1.979999989E-2,-7.562499959E-3
2.741308217E0,7.562499959E-3,2.186249942E-2,-1.086249948E-2
2.751392924E0,8.662499487E-3,2.296249941E-2,-1.182499994E-2
2.761477860E0,5.499999970E-3,2.186249942E-2,-4.399999976E-3
2.771562759E0,5.499999970E-3,2.089999989E-2,6.187499966E-3
2.781647592E0,1.402499992E-2,2.516249940E-2,1.044999994E-2
2.791732518E0,3.203750029E-2,4.317500070E-2,6.187499966E-3
2.801817446E0,4.482499883E-2,6.338749826E-2,8.249999955E-4
2.811902369E0,4.592499882E-2,7.191249728E-2,-3.437499981E-3
2.821987292E0,4.372499883E-2,8.043749630E-2,-8.662499487E-3
2.832071910E0,3.629999980E-2,9.638749808E-2,-1.086249948E-2
2.842156816E0,2.887500077E-2,1.091749966E-1,-8.662499487E-3
2.852241739E0,2.667500079E-2,1.134374961E-1,-6.599999964E-3
2.862326658E0,2.667500079E-2,1.176999956E-1,-1.374999993E-4
2.872411381E0,2.667500079E-2,1.262249947E-1,3.024999984E-3
2.882496302E0,2.777500078E-2,1.442375034E-1,1.924999990E-3
2.892581137E0,2.667500079E-2,1.592250019E-1,-1.237499993E-3
2.902666044E0,1.718750037E-2,1.720124930E-1,-1.374999993E-4
2.912750738E0,6.462499965E-3,1.825999916E-1,1.924999990E-3
2.922835659E0,1.374999993E-4,1.911250055E-1,5.087499972E-3
2.932920572E0,-5.224999972E-3,2.059749961E-1,7.287499961E-3
2.943005406E0,-9.487500414E-3,2.230249941E-1,7.287499961E-3
2.953090099E0,-1.471249945E-2,2.389750034E-1,7.287499961E-3
2.963175048E0,-2.117500082E-2,2.539624870E-1,6.187499966E-3
2.973259976E0,-2.117500082E-2,2.582249939E-1,-1.374999993E-4
2.983344824E0,-1.374999993E-2,2.699125111E-1,-9.762499481E-3
2.993429760E0,-9.624999948E-4,2.847625017E-1,-1.718750037E-2
3.003514668E0,1.828750037E-2,2.847625017E-1,-2.144999988E-2
3.013599358E0,3.739999980E-2,2.793999910E-1,-2.034999989E-2
3.023684279E0,5.018749833E-2,2.666125000E-1,-1.512499992E-2
3.033769212E0,5.335000157E-2,2.443374991E-1,-5.499999970E-3
3.043854055E0,4.908749834E-2,2.176624984E-1,3.024999984E-3
3.053938967E0,4.276249930E-2,1.889249980E-1,9.349999949E-3
3.064023646E0,3.093750030E-2,1.570249945E-1,1.264999993E-2
3.074108562E0,2.034999989E-2,1.208624989E-1,1.264999993E-2
3.084193486E0,7.562499959E-3,8.579999954E-2,1.044999994E-2
3.094278320E0,-8.387500420E-3,5.389999971E-2,1.044999994E-2
3.104363012E0,-2.433750033E-2,2.296249941E-2,9.349999949E-3
3.114447923E0,-3.822499886E-2,2.749999985E-3,8.387500420E-3
3.124532776E0,-4.675000161E-2,-3.574999981E-3,9.349999949E-3
3.134617697E0,-4.881250113E-2,2.749999985E-3,9.349999949E-3
3.144702601E0,-5.087500066E-2,5.912499968E-3,1.044999994E-2
3.154787291E0,-4.881250113E-2,8.112499490E-3,1.264999993E-2
3.164872120E0,-4.344999790E-2,7.012499962E-3,1.264999993E-2
3.174957048E0,-4.455000162E-2,1.649999991E-3,7.287499961E-3
3.185041985E0,-4.138749838E-2,-3.574999981E-3,5.087499972E-3
3.195126680E0,-3.176249936E-2,-8.937500417E-3,5.087499972E-3
3.205211606E0,-1.581249945E-2,-1.539999992E-2,6.187499966E-3
3.215296463E0,7.562499959E-3,-1.429999992E-2,7.287499961E-3
3.225381413E0,2.887500077E-2,-8.937500417E-3,8.387500420E-3
3.235466112E0,4.798749834E-2,-1.003750041E-2,9.349999949E-3
3.245551048E0,5.651250109E-2,-1.429999992E-2,1.044999994E-2
3.255635901E0,5.651250109E-2,-1.746249944E-2,1.154999994E-2
3.265720832E0,4.908749834E-2,-2.378750034E-2,1.691249944E-2
3.275805521E0,3.739999980E-2,-3.231250122E-2,2.213750035E-2
3.285890442E0,3.093750030E-2,-4.399999976E-2,2.529999986E-2
3.295975285E0,2.571249940E-2,-5.252499878E-2,2.529999986E-2
3.306060206E0,1.924999990E-2,-5.582499877E-2,2.433750033E-2
3.316144921E0,1.182499994E-2,-4.936249927E-2,2.007500082E-2
3.326229856E0,1.374999993E-4,-3.877500072E-2,1.154999994E-2
3.336314803E0,-1.044999994E-2,-2.598750032E-2,4.124999978E-3
3.346399651E0,-1.897500083E-2,-1.539999992E-2,-4.399999976E-3
3.356484353E0,-2.433750033E-2,-1.113750041E-2,-1.182499994E-2
3.366569188E0,-2.117500082E-2,2.749999985E-3,-1.828750037E-2
3.376654111E0,-1.154999994E-2,2.186249942E-2,-2.364999987E-2
3.386739024E0,9.762499481E-3,3.781250119E-2,-2.681249939E-2
3.396823709E0,3.313750029E-2,4.963750020E-2,-2.791249938E-2
3.406908562E0,5.224999785E-2,6.338749826E-2,-2.997500077E-2
3.416993485E0,6.077500060E-2,7.191249728E-2,-3.217500076E-2
3.427078394E0,6.393750012E-2,6.764999777E-2,-2.681249939E-2
3.437163083E0,6.503749639E-2,6.764999777E-2,-2.254999988E-2
3.447247922E0,6.613750011E-2,7.081250101E-2,-1.512499992E-2
3.457332850E0,6.503749639E-2,4.427500069E-2,-1.182499994E-2
3.467417778E0,6.503749639E-2,1.649999991E-3,-3.313750029E-2
3.477502463E0,6.297499686E-2,1.553750038E-2,-1.828750037E-2
3.487587384E0,3.423750028E-2,3.464999795E-2,-1.182499994E-2
3.497672218E0,3.299999982E-3,4.633750021E-2,-1.718750037E-2
3.507757139E0,-1.924999990E-3,6.228749827E-2,-2.144999988E-2
3.517841819E0,1.374999993E-4,8.263749629E-2,-2.681249939E-2
3.527926735E0,1.374999993E-4,9.322500229E-2,-2.997500077E-2
3.538011584E0,-3.024999984E-3,1.071124971E-1,-3.533750027E-2
3.548096505E0,-7.287499961E-3,1.176999956E-1,-4.592499882E-2
3.558181194E0,-4.124999978E-3,9.322500229E-2,-4.812499881E-2
3.568266053E0,7.562499959E-3,5.169999972E-2,-4.276249930E-2
3.578350986E0,3.739999980E-2,3.781250119E-2,-3.739999980E-2
3.588435681E0,7.892499864E-2,2.832499892E-2,-3.423750028E-2
3.598520606E0,1.119249985E-1,2.722499892E-2,-3.107500076E-2
3.608605514E0,1.289750040E-1,3.781250119E-2,-2.887500077E-2
3.618690141E0,1.267749965E-1,4.317500070E-2,-3.313750029E-2
3.628775057E0,1.108250022E-1,4.427500069E-2,-2.887500077E-2
3.638859980E0,8.841250092E-2,2.612499893E-2,-1.828750037E-2
3.648944829E0,6.077500060E-2,1.237499993E-2,-1.402499992E-2
3.659029750E0,3.203750029E-2,-5.774999969E-3,-1.292499993E-2
3.669114444E0,8.662499487E-3,-2.378750034E-2,-5.499999970E-3
3.679199365E0,-7.287499961E-3,-2.488750033E-2,-4.399999976E-3
3.689284198E0,-2.117500082E-2,-1.319999993E-2,-7.562499959E-3
3.699369119E0,-2.749999985E-2,3.849999979E-3,-6.599999964E-3
3.709453732E0,-2.433750033E-2,1.443750039E-2,-5.499999970E-3
3.719538653E0,-1.691249944E-2,-4.124999978E-4,8.249999955E-4
3.729623586E0,-1.471249945E-2,-3.024999984E-2,7.287499961E-3
3.739708509E0,-2.433750033E-2,-6.531249732E-2,1.361249946E-2
3.749793117E0,-3.822499886E-2,-7.493750006E-2,1.581249945E-2
3.759878028E0,-5.417500064E-2,-6.861250103E-2,1.581249945E-2
3.769962722E0,-5.417500064E-2,-5.788749829E-2,1.154999994E-2
3.780047643E0,-4.455000162E-2,-4.619999975E-2,3.024999984E-3
3.790132477E0,-3.066249937E-2,-4.083750024E-2,-4.399999976E-3
3.800217398E0,-1.471249945E-2,-3.987500072E-2,-1.086249948E-2
3.810302093E0,1.374999993E-4,-4.729999974E-2,-1.292499993E-2
3.820386917E0,1.292499993E-2,-5.582499877E-2,-1.292499993E-2
3.830471869E0,2.461249940E-2,-6.751249731E-2,-8.662499487E-3
3.840556563E0,3.849999979E-2,-7.809999585E-2,-1.374999993E-4
3.850641407E0,5.335000157E-2,-7.809999585E-2,5.087499972E-3
3.860726341E0,5.761250108E-2,-7.699999958E-2,1.154999994E-2
3.870811025E0,4.056249931E-2,-1.090374961E-1,2.007500082E-2
3.880895961E0,1.292499993E-2,-1.557874978E-1,2.859999985E-2
3.890980794E0,-1.691249944E-2,-1.802625060E-1,3.602499887E-2
3.901065482E0,-4.344999790E-2,-1.791625023E-1,4.455000162E-2
3.911150394E0,-6.159999967E-2,-1.589500010E-1,4.771250114E-2
3.921235266E0,-7.122500241E-2,-1.335124969E-1,4.028749838E-2
3.931320206E0,-7.122500241E-2,-1.132999957E-1,2.859999985E-2
3.941404900E0,-6.696250290E-2,-1.014750004E-1,2.007500082E-2
3.951489734E0,-5.733750015E-2,-9.721250087E-2,8.387500420E-3
3.961574429E0,-4.248749837E-2,-9.941250086E-2,-5.499999970E-3
3.971659366E0,-2.433750033E-2,-1.079374999E-1,-1.828750037E-2
3.981744218E0,-6.187499966E-3,-1.216875017E-1,-2.887500077E-2
3.991829120E0,8.662499487E-3,-1.313125044E-1,-3.313750029E-2
4.001913814E0,2.667500079E-2,-1.387374997E-1,-2.997500077E-2
4.011998736E0,3.739999980E-2,-1.420374960E-1,-2.364999987E-2
4.022083339E0,3.946249932E-2,-1.377750039E-1,-1.512499992E-2
4.032168260E0,3.739999980E-2,-1.270499974E-1,-7.562499959E-3
4.042253101E0,2.997500077E-2,-1.111000031E-1,1.924999990E-3
4.052338024E0,1.608750038E-2,-9.515000135E-2,1.361249946E-2
4.062422723E0,1.237499993E-3,-7.493750006E-2,2.213750035E-2
4.072507572E0,-1.581249945E-2,-5.156249925E-2,2.529999986E-2
4.082592495E0,-2.639999986E-2,-2.488750033E-2,2.323750034E-2
4.092677175E0,-2.969999984E-2,-1.512499992E-3,2.213750035E-2
4.102762009E0,-2.749999985E-2,2.186249942E-2,1.897500083E-2
4.112846919E0,-1.897500083E-2,4.111250117E-2,1.044999994E-2
4.122931622E0,-1.154999994E-2,5.912499875E-2,-1.374999993E-4
4.133016539E0,-8.387500420E-3,6.764999777E-2,-7.562499959E-3
4.143101387E0,-9.487500414E-3,6.984999776E-2,-1.086249948E-2
4.153186084E0,-4.124999978E-3,6.448750198E-2,-1.402499992E-2
4.163270928E0,4.399999976E-3,5.596249923E-2,-1.086249948E-2
4.173355622E0,4.399999976E-3,3.781250119E-2,-5.499999970E-3
4.183440534E0,3.299999982E-3,2.186249942E-2,-1.237499993E-3
4.193525382E0,2.199999988E-3,1.663750038E-2,-1.237499993E-3
4.203610312E0,-7.287499961E-3,9.074999951E-3,1.924999990E-3
4.213695026E0,-1.897500083E-2,-1.003750041E-2,1.154999994E-2
4.223779870E0,-2.749999985E-2,-3.877500072E-2,2.213750035E-2
4.233864560E0,-3.822499886E-2,-6.641250104E-2,3.382499889E-2
4.243949481E0,-4.344999790E-2,-8.346249908E-2,3.808749840E-2
4.254034320E0,-4.455000162E-2,-8.882500231E-2,3.808749840E-2
4.264119241E0,-4.138749838E-2,-7.809999585E-2,3.066249937E-2
4.274203945E0,-2.749999985E-2,-6.324999779E-2,1.264999993E-2
4.284288793E0,6.462499965E-3,-5.252499878E-2,-1.938750036E-2
4.294373487E0,2.199999988E-3,-6.874999963E-3,6.187499966E-3
4.304458414E0,-2.749999985E-2,-1.636249945E-2,1.691249944E-2
4.314543281E0,1.237499993E-3,1.869999990E-2,2.007500082E-2
4.324627983E0,9.762499481E-3,1.443750039E-2,3.602499887E-2
4.334712899E0,2.199999988E-3,5.912499968E-3,4.028749838E-2
4.344797742E0,4.399999976E-3,1.553750038E-2,4.344999790E-2
4.354882435E0,-3.024999984E-3,2.942499891E-2,4.551250115E-2
4.364967289E0,-6.187499966E-3,4.317500070E-2,4.551250115E-2
4.375052226E0,-6.187499966E-3,5.706249923E-2,3.808749840E-2
4.385136910E0,-1.691249944E-2,7.933750004E-2,2.859999985E-2
4.395221827E0,-3.396249935E-2,1.165999994E-1,2.007500082E-2
4.405306676E0,-5.087500066E-2,1.304875016E-1,2.007500082E-2
4.415391305E0,-5.623750016E-2,9.858749807E-2,2.213750035E-2
4.425476226E0,-5.307500064E-2,5.912499875E-2,2.007500082E-2
4.435560929E0,-4.564999789E-2,2.832499892E-2,2.323750034E-2
4.445645856E0,-2.969999984E-2,1.663750038E-2,2.433750033E-2
4.455730680E0,-1.471249945E-2,1.869999990E-2,1.471249945E-2
4.465815372E0,-6.187499966E-3,2.612499893E-2,5.087499972E-3
4.475900284E0,-3.024999984E-3,1.869999990E-2,-4.399999976E-3
4.485985136E0,-1.924999990E-3,1.237499993E-2,-1.086249948E-2
4.496069829E0,-4.124999978E-3,-8.937500417E-3,-1.292499993E-2
4.506154654E0,3.299999982E-3,-3.135000169E-2,-1.086249948E-2
4.516239557E0,1.828750037E-2,-4.083750024E-2,-6.599999964E-3
4.526324270E0,2.254999988E-2,-4.193750024E-2,-1.374999993E-4
4.536409119E0,1.182499994E-2,-3.561250120E-2,4.124999978E-3
4.546493814E0,6.462499965E-3,-2.708750032E-2,7.287499961E-3
4.556578735E0,3.299999982E-3,-1.856249943E-2,1.264999993E-2
4.566663597E0,2.199999988E-3,-2.914999984E-2,1.897500083E-2
4.576748294E0,5.499999970E-3,-4.399999976E-2,2.639999986E-2
4.586833125E0,1.828750037E-2,-4.826249927E-2,3.286249936E-2
4.596917819E0,3.629999980E-2,-4.826249927E-2,2.956249937E-2
4.607002725E0,4.592499882E-2,-4.083750024E-2,2.007500082E-2
4.617087578E0,3.203750029E-2,-3.987500072E-2,1.581249945E-2
4.627172270E0,6.462499965E-3,-3.767500073E-2,7.287499961E-3
4.637257110E0,-1.374999993E-2,-2.282499894E-2,8.249999955E-4
4.647342033E0,-2.639999986E-2,-1.746249944E-2,8.249999955E-4
4.657426741E0,-2.969999984E-2,-1.952499896E-2,1.924999990E-3
4.667511585E0,-2.433750033E-2,-1.636249945E-2,-1.237499993E-3
4.677596285E0,-1.374999993E-2,-1.856249943E-2,-1.374999993E-4
4.687681134E0,-6.187499966E-3,-3.561250120E-2,4.124999978E-3
4.697766052E0,3.299999982E-3,-4.193750024E-2,6.187499966E-3
4.707850732E0,2.254999988E-2,-3.877500072E-2,5.087499972E-3
4.717935571E0,3.629999980E-2,-3.451250121E-2,-1.237499993E-3
4.728020475E0,4.372499883E-2,-2.282499894E-2,-1.182499994E-2
4.738105174E0,4.276249930E-2,-4.124999978E-4,-2.254999988E-2
4.748190018E0,2.997500077E-2,1.443750039E-2,-2.571249940E-2
4.758274717E0,1.718750037E-2,2.089999989E-2,-2.364999987E-2
4.768359543E0,6.462499965E-3,2.406249940E-2,-1.938750036E-2
4.778444227E0,3.299999982E-3,3.781250119E-2,-1.938750036E-2
4.788529163E0,2.199999988E-3,4.853750020E-2,-1.718750037E-2
4.798614015E0,7.562499959E-3,4.633750021E-2,-1.718750037E-2
4.808698722E0,1.608750038E-2,4.317500070E-2,-1.938750036E-2
4.818783557E0,1.498750038E-2,3.148749843E-2,-1.718750037E-2
4.828868485E0,6.462499965E-3,4.949999973E-3,-1.402499992E-2
4.838953179E0,-8.387500420E-3,-2.282499894E-2,-7.562499959E-3
4.849038023E0,-2.227500081E-2,-4.936249927E-2,-1.237499993E-3
4.859122718E0,-2.859999985E-2,-6.435000151E-2,4.124999978E-3
4.869207649E0,-2.749999985E-2,-6.861250103E-2,5.087499972E-3
4.879292497E0,-2.639999986E-2,-7.067500055E-2,6.187499966E-3
4.889377184E0,-2.749999985E-2,-7.699999958E-2,9.349999949E-3
4.899462028E0,-2.969999984E-2,-8.126249909E-2,8.387500420E-3
4.909546737E0,-3.602499887E-2,-7.809999585E-2,5.087499972E-3
4.919631601E0,-3.492499888E-2,-6.751249731E-2,8.249999955E-4
4.929716295E0,-2.639999986E-2,-6.215000153E-2,-3.437499981E-3
4.939801216E0,-1.264999993E-2,-5.898749828E-2,-8.662499487E-3
4.949886050E0,-3.024999984E-3,-5.898749828E-2,-7.562499959E-3
4.959970743E0,-3.024999984E-3,-6.435000151E-2,-5.499999970E-3
4.970055611E0,-5.224999972E-3,-6.324999779E-2,-1.374999993E-4
4.980140529E0,-8.387500420E-3,-5.582499877E-2,3.024999984E-3
4.990225228E0,-1.691249944E-2,-4.729999974E-2,5.087499972E-3
5.000310063E0,-2.117500082E-2,-4.399999976E-2,1.044999994E-2
5.010394767E0,-2.433750033E-2,-5.362499878E-2,1.787500083E-2
5.020479611E0,-1.897500083E-2,-7.699999958E-2,2.213750035E-2
5.030564300E0,-7.287499961E-3,-9.721250087E-2,2.103750035E-2
5.040649150E0,-6.187499966E-3,-1.090374961E-1,2.007500082E-2
5.050734073E0,-9.487500414E-3,-1.079374999E-1,1.581249945E-2
5.060818762E0,-1.801249944E-2,-9.624999762E-2,9.349999949E-3
5.070903596E0,-3.396249935E-2,-9.198749810E-2,6.187499966E-3
5.080988277E0,-4.675000161E-2,-9.624999762E-2,8.249999955E-4
5.091073116E0,-4.881250113E-2,-9.941250086E-2,-1.237499993E-3
5.101158044E0,-4.028749838E-2,-1.047749966E-1,-5.499999970E-3
5.111242738E0,-2.227500081E-2,-1.099999994E-1,-1.292499993E-2
5.121327591E0,1.374999993E-4,-1.121999994E-1,-1.828750037E-2
5.131412286E0,1.182499994E-2,-1.068374962E-1,-2.461249940E-2
5.141497135E0,1.924999990E-2,-9.831249714E-2,-2.791249938E-2
5.151581814E0,2.351249941E-2,-8.662500232E-2,-2.681249939E-2
5.161666668E0,1.924999990E-2,-7.383749634E-2,-2.364999987E-2
5.171751596E0,6.462499965E-3,-6.215000153E-2,-1.718750037E-2
5.181836291E0,1.237499993E-3,-4.729999974E-2,-9.762499481E-3
5.191921158E0,6.462499965E-3,-3.341250122E-2,-1.237499993E-3
5.202005847E0,1.072499994E-2,-2.378750034E-2,1.924999990E-3
5.212090764E0,1.072499994E-2,-4.124999978E-4,1.787500083E-2
5.222175377E0,2.199999988E-3,-2.282499894E-2,2.323750034E-2
5.232260293E0,9.762499481E-3,-1.746249944E-2,2.529999986E-2
5.242345135E0,3.093750030E-2,-3.574999981E-3,2.749999985E-2
5.252429829E0,1.718750037E-2,3.849999979E-3,1.897500083E-2
5.262514692E0,1.237499993E-3,1.759999990E-2,8.387500420E-3
5.272599400E0,9.762499481E-3,1.443750039E-2,1.154999994E-2
5.282684230E0,2.199999988E-3,2.749999985E-3,1.787500083E-2
5.292768938E0,-9.487500414E-3,-1.512499992E-3,2.323750034E-2
5.302853779E0,-1.581249945E-2,7.012499962E-3,2.007500082E-2
5.312938711E0,-4.138749838E-2,3.781250119E-2,1.581249945E-2
5.323023415E0,-6.049999967E-2,8.043749630E-2,1.471249945E-2
5.333108259E0,-4.991250113E-2,1.102750003E-1,1.471249945E-2
5.343192959E0,-2.323750034E-2,1.060125008E-1,1.581249945E-2
5.353277788E0,-1.264999993E-2,8.786249906E-2,1.787500083E-2
5.363362458E0,-1.154999994E-2,7.507500052E-2,2.213750035E-2
5.373447302E0,-1.374999993E-2,6.558749825E-2,2.749999985E-2
5.383532235E0,-8.387500420E-3,5.059999973E-2,2.433750033E-2
5.393616939E0,-3.024999984E-3,4.427500069E-2,7.287499961E-3
5.403701793E0,-7.287499961E-3,6.132499874E-2,8.249999955E-4
5.413786487E0,-7.287499961E-3,7.507500052E-2,-1.086249948E-2
5.423871355E0,-8.387500420E-3,7.837499678E-2,-1.512499992E-2
5.433956040E0,-1.471249945E-2,5.059999973E-2,-1.828750037E-2
5.444040884E0,-1.154999994E-2,1.979999989E-2,-1.608750038E-2
5.454125821E0,-1.924999990E-3,5.912499968E-3,-1.086249948E-2
5.464210453E0,-4.124999978E-3,9.074999951E-3,-2.337499987E-3
5.474295365E0,-1.471249945E-2,3.464999795E-2,5.087499972E-3
5.484379982E0,-2.859999985E-2,6.984999776E-2,1.154999994E-2
5.494464908E0,-3.822499886E-2,8.896250278E-2,1.044999994E-2
5.504549602E0,-2.969999984E-2,9.748750180E-2,8.249999955E-4
5.514634442E0,-1.154999994E-2,9.748750180E-2,-1.182499994E-2
5.524719126E0,6.462499965E-3,8.896250278E-2,-2.144999988E-2
5.534804047E0,1.924999990E-2,6.764999777E-2,-2.791249938E-2
5.544888895E0,2.667500079E-2,4.427500069E-2,-2.791249938E-2
5.554973502E0,2.997500077E-2,2.832499892E-2,-2.461249940E-2
5.565058194E0,2.997500077E-2,1.979999989E-2,-2.461249940E-2
5.575143124E0,3.313750029E-2,2.296249941E-2,-2.254999988E-2
5.585227951E0,3.849999979E-2,2.516249940E-2,-2.034999989E-2
5.595312630E0,4.372499883E-2,1.663750038E-2,-1.938750036E-2
5.605397452E0,4.372499883E-2,1.333750039E-2,-2.254999988E-2
5.615482142E0,3.629999980E-2,1.759999990E-2,-2.681249939E-2
5.625566981E0,2.571249940E-2,1.759999990E-2,-2.461249940E-2
5.635651676E0,1.608750038E-2,-4.674999975E-3,-1.402499992E-2
5.645736505E0,8.662499487E-3,-2.282499894E-2,-2.337499987E-3
5.655821438E0,8.662499487E-3,-2.708750032E-2,3.024999984E-3
5.665906117E0,8.662499487E-3,-1.856249943E-2,5.087499972E-3
5.675990952E0,1.182499994E-2,-8.937500417E-3,4.124999978E-3
5.686075666E0,1.182499994E-2,5.912499968E-3,-1.374999993E-4
5.696160505E0,8.662499487E-3,2.296249941E-2,-1.237499993E-3
5.706245209E0,6.462499965E-3,2.089999989E-2,8.249999955E-4
5.716330053E0,7.562499959E-3,1.443750039E-2,-2.337499987E-3
5.726414743E0,4.399999976E-3,2.516249940E-2,-1.182499994E-2
5.736499664E0,-9.487500414E-3,4.207500070E-2,-1.512499992E-2
5.746584290E0,-2.543750033E-2,4.317500070E-2,-9.762499481E-3
5.756669134E0,-2.859999985E-2,4.111250117E-2,-5.499999970E-3
5.766754072E0,-1.374999993E-2,5.279999971E-2,-5.499999970E-3
5.776838791E0,1.237499993E-3,7.933750004E-2,-8.662499487E-3
5.786923401E0,6.462499965E-3,1.028499976E-1,-3.437499981E-3
5.797008312E0,1.292499993E-2,1.273249984E-1,-2.337499987E-3
5.807093168E0,2.777500078E-2,1.325500011E-1,-3.437499981E-3
5.817177863E0,4.056249931E-2,1.282874942E-1,-1.828750037E-2
5.827262702E0,3.946249932E-2,1.581249982E-1,-2.791249938E-2
5.837347371E0,3.629999980E-2,1.570249945E-1,-3.313750029E-2
5.847432215E0,2.571249940E-2,1.262249947E-1,-2.461249940E-2
5.857516934E0,9.762499481E-3,1.123374999E-1,-2.571249940E-2
5.867601778E0,-1.374999993E-2,1.208624989E-1,-2.887500077E-2
5.877686472E0,-3.176249936E-2,1.145374998E-1,-2.571249940E-2
5.887771306E0,-2.007500082E-2,1.028499976E-1,-3.107500076E-2
5.897856011E0,9.762499481E-3,8.786249906E-2,-3.629999980E-2
5.907940845E0,3.629999980E-2,6.338749826E-2,-3.423750028E-2
5.918025544E0,4.166249931E-2,2.296249941E-2,-2.997500077E-2
5.928110389E0,4.592499882E-2,-1.856249943E-2,-2.461249940E-2
5.938195078E0,4.798749834E-2,-4.509999976E-2,-2.034999989E-2
5.948279922E0,4.592499882E-2,-7.809999585E-2,-1.608750038E-2
5.958364592E0,5.541250110E-2,-1.025749967E-1,-1.718750037E-2
5.968449528E0,6.819999963E-2,-1.207249984E-1,-2.034999989E-2
5.978534377E0,5.444999784E-2,-1.111000031E-1,-2.254999988E-2
5.988619064E0,3.849999979E-2,-1.121999994E-1,-2.254999988E-2
5.998703898E0,4.372499883E-2,-1.153625026E-1,-2.461249940E-2
6.008788592E0,3.423750028E-2,-1.121999994E-1,-2.791249938E-2
6.018873437E0,2.034999989E-2,-1.036750004E-1,-2.571249940E-2
6.028958117E0,2.034999989E-2,-9.198749810E-2,-2.034999989E-2
6.039042975E0,2.254999988E-2,-7.603749633E-2,-1.938750036E-2
6.049127684E0,2.571249940E-2,-4.399999976E-2,-2.681249939E-2
6.059212529E0,3.093750030E-2,-1.003750041E-2,-3.313750029E-2
6.069297214E0,2.997500077E-2,8.112499490E-3,-3.313750029E-2
6.079382058E0,2.351249941E-2,1.979999989E-2,-2.887500077E-2
6.089466743E0,1.828750037E-2,1.979999989E-2,-1.938750036E-2
6.099551582E0,2.887500077E-2,5.912499968E-3,-4.399999976E-3
6.109636286E0,4.166249931E-2,3.849999979E-3,4.124999978E-3
6.119721130E0,4.056249931E-2,2.186249942E-2,9.349999949E-3
6.129805830E0,3.313750029E-2,4.633750021E-2,1.044999994E-2
6.139890674E0,1.608750038E-2,8.043749630E-2,8.387500420E-3
6.149975382E0,-3.024999984E-3,9.528750181E-2,7.287499961E-3
6.160060312E0,-8.387500420E-3,7.933750004E-2,5.087499972E-3
6.170144930E0,-6.187499966E-3,5.389999971E-2,-1.374999993E-4
6.180229774E0,7.562499959E-3,2.722499892E-2,-7.562499959E-3
6.190314683E0,2.777500078E-2,6.874999963E-4,-1.718750037E-2
6.200399386E0,3.423750028E-2,-1.319999993E-2,-1.828750037E-2
6.210483998E0,1.924999990E-2,-1.319999993E-2,-1.402499992E-2
6.220568919E0,2.034999989E-2,-2.612499986E-3,-1.292499993E-2
6.230653521E0,2.887500077E-2,5.912499968E-3,-1.182499994E-2
6.240738365E0,2.144999988E-2,-3.574999981E-3,-6.599999964E-3
6.250823060E0,1.374999993E-4,-2.804999985E-2,-3.437499981E-3
6.260907904E0,-7.287499961E-3,-4.729999974E-2,-4.399999976E-3
6.270992827E0,-9.487500414E-3,-4.936249927E-2,-1.086249948E-2
6.281077444E0,-1.471249945E-2,-4.083750024E-2,-1.182499994E-2
6.291162142E0,-1.154999994E-2,-4.399999976E-2,-1.608750038E-2
6.301246976E0,1.237499993E-3,-4.826249927E-2,-1.292499993E-2
6.311331661E0,7.562499959E-3,-5.156249925E-2,-9.762499481E-3
6.321416572E0,1.608750038E-2,-4.399999976E-2,-1.402499992E-2
6.331501176E0,2.667500079E-2,-3.135000169E-2,-1.608750038E-2
6.341586116E0,2.777500078E-2,-3.451250121E-2,-8.662499487E-3
6.351670738E0,2.667500079E-2,-4.399999976E-2,6.187499966E-3
6.361755596E0,2.887500077E-2,-3.987500072E-2,1.897500083E-2
6.371840534E0,2.461249940E-2,-2.172499895E-2,2.213750035E-2
6.381925229E0,1.402499992E-2,3.849999979E-3,1.787500083E-2
6.392009839E0,-4.124999978E-3,3.575000167E-2,1.264999993E-2
6.402094683E0,-2.859999985E-2,6.338749826E-2,1.264999993E-2
6.412179619E0,-5.197500065E-2,6.875000149E-2,1.787500083E-2
6.422264329E0,-6.049999967E-2,7.301250100E-2,2.433750033E-2
6.432348929E0,-4.881250113E-2,8.359999955E-2,2.859999985E-2
6.442433773E0,-3.066249937E-2,9.432499856E-2,3.286249936E-2
6.452518691E0,-1.154999994E-2,1.102750003E-1,3.066249937E-2
6.462603304E0,3.299999982E-3,1.304875016E-1,2.323750034E-2
6.472688006E0,7.562499959E-3,1.410750002E-1,1.691249944E-2
6.482772850E0,2.199999988E-3,1.379124969E-1,1.154999994E-2
6.492857559E0,-6.187499966E-3,1.273249984E-1,6.187499966E-3
6.502942427E0,-2.007500082E-2,1.028499976E-1,6.187499966E-3
6.513027102E0,-3.492499888E-2,6.558749825E-2,1.264999993E-2
6.523111932E0,-4.564999789E-2,2.612499893E-2,2.103750035E-2
6.533196607E0,-4.881250113E-2,-6.874999963E-3,2.433750033E-2
6.543281447E0,-4.138749838E-2,-2.488750033E-2,2.007500082E-2
6.553366145E0,-3.492499888E-2,-3.877500072E-2,1.154999994E-2
6.563451071E0,-1.471249945E-2,-3.987500072E-2,-1.237499993E-3
6.573535689E0,7.562499959E-3,-3.451250121E-2,-1.828750037E-2
6.583620519E0,1.292499993E-2,-2.804999985E-2,-3.313750029E-2
6.593705213E0,1.498750038E-2,-2.914999984E-2,-4.276249930E-2
6.603790057E0,1.402499992E-2,-2.282499894E-2,-4.812499881E-2
6.613874756E0,1.237499993E-3,-2.488750033E-2,-4.056249931E-2
6.623959605E0,-2.323750034E-2,-4.619999975E-2,-2.034999989E-2
6.634044299E0,-2.969999984E-2,-5.156249925E-2,4.124999978E-3
6.644129143E0,-2.859999985E-2,-5.362499878E-2,2.433750033E-2
6.654213833E0,-2.969999984E-2,-4.729999974E-2,3.712499887E-2
6.664298672E0,-3.066249937E-2,-2.282499894E-2,4.455000162E-2
6.674383357E0,-1.581249945E-2,1.333750039E-2,4.771250114E-2
6.684468215E0,1.072499994E-2,3.684999794E-2,4.771250114E-2
6.694552819E0,2.887500077E-2,5.169999972E-2,4.344999790E-2
6.704637509E0,3.423750028E-2,6.228749827E-2,3.176249936E-2
6.714722441E0,2.887500077E-2,7.081250101E-2,2.007500082E-2
6.724807278E0,2.034999989E-2,6.984999776E-2,7.287499961E-3
6.734891973E0,1.498750038E-2,6.448750198E-2,-4.399999976E-3
6.744976602E0,1.182499994E-2,6.984999776E-2,-1.182499994E-2
6.755061446E0,9.762499481E-3,8.043749630E-2,-1.718750037E-2
6.765146355E0,1.182499994E-2,7.301250100E-2,-1.402499992E-2
6.775230977E0,1.608750038E-2,4.111250117E-2,-3.437499981E-3
6.785315669E0,1.292499993E-2,7.012499962E-3,6.187499966E-3
6.795400518E0,-5.224999972E-3,-3.135000169E-2,1.691249944E-2
6.805485238E0,-2.433750033E-2,-6.531249732E-2,2.956249937E-2
6.815570072E0,-3.712499887E-2,-9.088750184E-2,4.028749838E-2
6.825654781E0,-4.248749837E-2,-1.185249984E-1,5.087500066E-2
6.835739397E0,-4.028749838E-2,-1.451999992E-1,5.307500064E-2
6.845824318E0,-3.712499887E-2,-1.643124968E-1,4.661250114E-2
6.855909164E0,-3.492499888E-2,-1.759999990E-1,3.602499887E-2
6.865993872E0,-2.859999985E-2,-1.834249943E-1,2.433750033E-2
6.876078488E0,-1.691249944E-2,-1.962125003E-1,1.581249945E-2
6.886163322E0,-8.387500420E-3,-2.121624947E-1,1.264999993E-2
6.896248016E0,-4.124999978E-3,-2.186249942E-1,9.349999949E-3
6.906332855E0,-5.224999972E-3,-2.069374919E-1,6.187499966E-3
6.916417560E0,-1.471249945E-2,-1.813624948E-1,3.024999984E-3
6.926502404E0,-2.639999986E-2,-1.504250020E-1,5.087499972E-3
6.936587112E0,-3.918749839E-2,-1.238875017E-1,1.264999993E-2
6.946671942E0,-5.307500064E-2,-1.132999957E-1,2.213750035E-2
6.956756637E0,-6.049999967E-2,-1.057374999E-1,3.066249937E-2
6.966841281E0,-6.696250290E-2,-9.941250086E-2,3.602499887E-2
6.976926110E0,-7.122500241E-2,-8.236250281E-2,3.808749840E-2
6.987010800E0,-7.122500241E-2,-6.104999781E-2,3.492499888E-2
6.997095634E0,-7.328750193E-2,-5.156249925E-2,2.859999985E-2
7.007180337E0,-6.586249918E-2,-4.303750023E-2,2.323750034E-2
7.017264953E0,-5.623750016E-2,-2.708750032E-2,1.897500083E-2
7.027349850E0,-5.087500066E-2,-1.003750041E-2,1.264999993E-2
7.037434696E0,-4.344999790E-2,5.912499968E-3,8.387500420E-3
7.047519377E0,-3.918749839E-2,3.849999979E-3,8.387500420E-3
7.057603993E0,-3.822499886E-2,4.949999973E-3,1.264999993E-2
7.067688837E0,-3.492499888E-2,1.759999990E-2,1.581249945E-2
7.077773769E0,-2.749999985E-2,1.759999990E-2,2.433750033E-2
7.087858390E0,-1.471249945E-2,1.017499994E-2,3.176249936E-2
7.097943079E0,-4.124999978E-3,5.912499968E-3,3.066249937E-2
7.108027923E0,-1.924999990E-3,-1.512499992E-3,3.176249936E-2
7.118112603E0,-7.287499961E-3,-1.856249943E-2,3.066249937E-2
7.128197457E0,-1.374999993E-2,-1.952499896E-2,2.529999986E-2
7.138282137E0,-2.007500082E-2,-1.512499992E-3,1.897500083E-2
7.148366733E0,-2.639999986E-2,1.553750038E-2,1.154999994E-2
7.158451577E0,-3.822499886E-2,4.111250117E-2,7.287499961E-3
7.168536272E0,-4.028749838E-2,7.411249727E-2,8.249999955E-4
7.178621116E0,-3.918749839E-2,1.006499976E-1,-1.237499993E-3
7.188705824E0,-4.455000162E-2,1.028499976E-1,-1.237499993E-3
7.198790668E0,-4.248749837E-2,1.006499976E-1,8.249999955E-4
7.208875363E0,-2.639999986E-2,9.212499857E-2,1.924999990E-3
7.218960207E0,-1.471249945E-2,8.263749629E-2,-2.337499987E-3
7.229044824E0,-1.374999993E-2,6.875000149E-2,-7.562499959E-3
7.239129514E0,-1.471249945E-2,4.853750020E-2,-1.086249948E-2
7.249214361E0,-8.387500420E-3,2.612499893E-2,-9.762499481E-3
7.259299284E0,-8.387500420E-3,-1.209999993E-2,-3.437499981E-3
7.269383892E0,-1.264999993E-2,-4.826249927E-2,8.249999955E-4
7.279468589E0,-1.691249944E-2,-6.435000151E-2,-1.237499993E-3
7.289553428E0,-2.749999985E-2,-6.531249732E-2,8.249999955E-4
7.299638103E0,-2.749999985E-2,-7.809999585E-2,1.154999994E-2
7.309722728E0,-2.227500081E-2,-9.721250087E-2,2.007500082E-2
7.319807602E0,-1.374999993E-2,-1.079374999E-1,2.323750034E-2
7.329892286E0,-7.287499961E-3,-1.090374961E-1,1.897500083E-2
7.339977130E0,-1.924999990E-3,-9.624999762E-2,1.154999994E-2
7.350061829E0,1.374999993E-4,-8.978749812E-2,-3.437499981E-3
7.360146683E0,1.237499993E-3,-8.126249909E-2,-2.034999989E-2
7.370231291E0,1.608750038E-2,-6.641250104E-2,-2.887500077E-2
7.380316212E0,2.667500079E-2,-6.531249732E-2,-2.887500077E-2
7.390400830E0,1.828750037E-2,-8.552499861E-2,-2.887500077E-2
7.400485522E0,1.292499993E-2,-7.919999957E-2,-2.144999988E-2
7.410570137E0,1.924999990E-2,-5.788749829E-2,-7.562499959E-3
7.420655043E0,1.718750037E-2,-6.324999779E-2,5.087499972E-3
7.430739895E0,1.292499993E-2,-4.936249927E-2,1.361249946E-2
7.440824594E0,1.292499993E-2,-1.856249943E-2,1.897500083E-2
7.450909218E0,5.499999970E-3,3.849999979E-3,2.213750035E-2
7.460994053E0,-1.044999994E-2,2.186249942E-2,2.103750035E-2
7.471078728E0,-2.543750033E-2,5.389999971E-2,1.691249944E-2
7.481163572E0,-3.286249936E-2,7.191249728E-2,1.471249945E-2
7.491248257E0,-3.822499886E-2,9.322500229E-2,1.264999993E-2
7.501332863E0,-3.602499887E-2,1.123374999E-1,1.044999994E-2
7.511417693E0,-3.396249935E-2,1.336500049E-1,6.187499966E-3
7.521502358E0,-3.066249937E-2,1.538625062E-1,1.924999990E-3
7.531587202E0,-2.433750033E-2,1.698125005E-1,3.024999984E-3
7.541671897E0,-1.471249945E-2,1.740749925E-1,9.349999949E-3
7.551756512E0,-9.487500414E-3,1.677500010E-1,1.264999993E-2
7.561841360E0,-8.387500420E-3,1.603250057E-1,1.471249945E-2
7.571926065E0,-1.924999990E-3,1.484999955E-1,1.581249945E-2
7.582010899E0,3.299999982E-3,1.293874979E-1,1.361249946E-2
7.592095593E0,9.762499481E-3,1.028499976E-1,1.471249945E-2
7.602180422E0,1.498750038E-2,7.837499678E-2,9.349999949E-3
7.612265136E0,2.144999988E-2,5.169999972E-2,7.287499961E-3
7.622349985E0,2.461249940E-2,9.074999951E-3,9.349999949E-3
7.632434588E0,2.461249940E-2,-3.987500072E-2,9.349999949E-3
7.642519283E0,2.461249940E-2,-8.456250280E-2,7.287499961E-3
7.652604139E0,2.351249941E-2,-1.302125007E-1,3.024999984E-3
7.662688847E0,2.144999988E-2,-1.707749963E-1,1.924999990E-3
7.672773492E0,2.034999989E-2,-2.015749961E-1,-1.374999993E-4
7.682858336E0,2.254999988E-2,-2.175250053E-1,-4.399999976E-3
7.692943045E0,1.924999990E-2,-2.281125039E-1,-6.599999964E-3
7.703027903E0,1.072499994E-2,-2.345750034E-1,-7.562499959E-3
7.713112603E0,-1.924999990E-3,-2.260500044E-1,-9.762499481E-3
7.723197218E0,-1.471249945E-2,-2.079000026E-1,-7.562499959E-3
7.733282057E0,-1.897500083E-2,-1.813624948E-1,-1.237499993E-3
7.743366751E0,-2.007500082E-2,-1.568875015E-1,5.087499972E-3
7.753451606E0,-1.801249944E-2,-1.387374997E-1,8.387500420E-3
7.763536213E0,-1.581249945E-2,-1.142624989E-1,5.087499972E-3
7.773620903E0,-1.374999993E-2,-9.198749810E-2,5.087499972E-3
7.783705750E0,-6.187499966E-3,-7.383749634E-2,3.024999984E-3
7.793790458E0,1.374999993E-4,-5.362499878E-2,-2.337499987E-3
7.803875088E0,4.399999976E-3,-3.024999984E-2,-4.399999976E-3
7.813959913E0,8.662499487E-3,-1.003750041E-2,-6.599999964E-3
7.824044613E0,1.182499994E-2,7.012499962E-3,-8.662499487E-3
7.834129466E0,1.924999990E-2,1.979999989E-2,-8.662499487E-3
7.844214160E0,2.887500077E-2,2.089999989E-2,-9.762499481E-3
7.854299004E0,3.423750028E-2,1.443750039E-2,-1.086249948E-2
7.864383622E0,3.519999981E-2,4.949999973E-3,-1.182499994E-2
7.874468312E0,3.093750030E-2,-2.612499986E-3,-1.608750038E-2
7.884553158E0,2.461249940E-2,-5.774999969E-3,-1.828750037E-2
7.894637762E0,1.608750038E-2,-1.003750041E-2,-1.938750036E-2
7.904722466E0,1.402499992E-2,-1.856249943E-2,-2.254999988E-2
7.914807303E0,1.498750038E-2,-2.488750033E-2,-2.144999988E-2
7.924892011E0,1.292499993E-2,-3.657500073E-2,-1.938750036E-2
7.934976636E0,1.292499993E-2,-4.399999976E-2,-2.034999989E-2
7.945061470E0,1.182499994E-2,-4.826249927E-2,-2.144999988E-2
7.955146156E0,9.762499481E-3,-5.252499878E-2,-2.034999989E-2
7.965231010E0,5.499999970E-3,-5.582499877E-2,-2.144999988E-2
7.975315709E0,1.374999993E-4,-5.582499877E-2,-2.254999988E-2
7.985400563E0,-3.024999984E-3,-5.046249926E-2,-2.144999988E-2
7.995485190E0,-1.924999990E-3,-4.509999976E-2,-2.034999989E-2
8.005569880E0,1.237499993E-3,-3.987500072E-2,-1.718750037E-2
8.015654712E0,3.299999982E-3,-3.451250121E-2,-1.182499994E-2
8.025739330E0,6.462499965E-3,-2.804999985E-2,-7.562499959E-3
8.035824020E0,1.292499993E-2,-2.062499896E-2,-4.399999976E-3
8.045908866E0,1.498750038E-2,-1.539999992E-2,3.024999984E-3
8.055993479E0,2.461249940E-2,-7.837500423E-3,9.349999949E-3
8.066078154E0,4.276249930E-2,2.749999985E-3,9.349999949E-3
8.076163015E0,5.335000157E-2,1.017499994E-2,6.187499966E-3
8.086247704E0,5.541250110E-2,1.127499994E-2,5.087499972E-3
8.096332549E0,5.018749833E-2,8.112499490E-3,8.249999955E-4
8.106417272E0,3.629999980E-2,6.874999963E-4,-1.237499993E-3
8.116501882E0,2.254999988E-2,-7.837500423E-3,-2.337499987E-3
8.126586731E0,8.662499487E-3,-1.429999992E-2,-7.562499959E-3
8.136671349E0,-1.924999990E-3,-1.319999993E-2,-1.402499992E-2
8.146756048E0,-7.287499961E-3,-8.937500417E-3,-2.364999987E-2
8.156840889E0,-6.187499966E-3,-5.774999969E-3,-3.217500076E-2
8.166925503E0,2.199999988E-3,-4.674999975E-3,-3.739999980E-2
8.177010438E0,9.762499481E-3,-4.674999975E-3,-3.739999980E-2
8.187095118E0,1.608750038E-2,-3.574999981E-3,-3.313750029E-2
8.197179734E0,2.034999989E-2,-6.874999963E-3,-2.144999988E-2
8.207264563E0,2.254999988E-2,-1.113750041E-2,-6.599999964E-3
8.217349271E0,2.034999989E-2,-1.319999993E-2,6.187499966E-3
8.227433883E0,9.762499481E-3,-1.512499992E-3,1.581249945E-2
8.237518712E0,1.237499993E-3,1.333750039E-2,2.529999986E-2
8.247603425E0,-1.924999990E-3,3.575000167E-2,3.286249936E-2
8.257688031E0,-6.187499966E-3,5.596249923E-2,3.176249936E-2
8.267772876E0,-1.264999993E-2,7.081250101E-2,2.529999986E-2
8.277857560E0,-1.581249945E-2,7.837499678E-2,2.007500082E-2
8.287942399E0,-1.581249945E-2,7.507500052E-2,1.264999993E-2
8.298027003E0,-1.471249945E-2,7.837499678E-2,8.249999955E-4
8.308111905E0,-1.264999993E-2,8.359999955E-2,-4.399999976E-3
8.318196512E0,-7.287499961E-3,7.933750004E-2,-1.086249948E-2
8.328281209E0,3.299999982E-3,7.301250100E-2,-1.182499994E-2
8.338365820E0,9.762499481E-3,6.022499874E-2,-8.662499487E-3
8.348450645E0,2.034999989E-2,4.317500070E-2,-7.562499959E-3
8.358535338E0,3.519999981E-2,2.186249942E-2,-9.762499481E-3
8.368619964E0,4.482499883E-2,-2.612499986E-3,-1.086249948E-2
8.378704808E0,4.798749834E-2,-2.488750033E-2,-1.512499992E-2
8.388789521E0,3.739999980E-2,-4.303750023E-2,-1.402499992E-2
8.398874365E0,2.461249940E-2,-6.531249732E-2,-7.562499959E-3
8.408958988E0,1.292499993E-2,-9.404999763E-2,4.124999978E-3
8.419043678E0,1.374999993E-4,-1.079374999E-1,1.361249946E-2
8.429128505E0,-1.044999994E-2,-1.164624989E-1,1.471249945E-2
8.439213147E0,-2.543750033E-2,-1.185249984E-1,1.471249945E-2
8.449297846E0,-2.543750033E-2,-1.121999994E-1,8.387500420E-3
8.459382692E0,-2.639999986E-2,-1.047749966E-1,-2.337499987E-3
8.469467378E0,-2.969999984E-2,-9.831249714E-2,-9.762499481E-3
8.479551997E0,-2.639999986E-2,-8.882500231E-2,-1.402499992E-2
8.489636846E0,-2.227500081E-2,-7.699999958E-2,-1.402499992E-2
8.499721540E0,-2.007500082E-2,-6.751249731E-2,-1.086249948E-2
8.509806151E0,-1.897500083E-2,-5.046249926E-2,-8.662499487E-3
8.519891000E0,-1.897500083E-2,-2.804999985E-2,-4.399999976E-3
8.529975694E0,-1.897500083E-2,-8.937500417E-3,8.249999955E-4
8.540060310E0,-1.581249945E-2,7.012499962E-3,1.924999990E-3
8.550145154E0,-1.471249945E-2,2.296249941E-2,6.187499966E-3
8.560229834E0,-1.374999993E-2,3.684999794E-2,9.349999949E-3
8.570314445E0,-6.187499966E-3,4.001250118E-2,1.154999994E-2
8.580399275E0,6.462499965E-3,3.781250119E-2,1.154999994E-2
8.590483978E0,1.402499992E-2,3.684999794E-2,7.287499961E-3
8.600568822E0,1.292499993E-2,3.464999795E-2,4.124999978E-3
8.610653440E0,8.662499487E-3,2.722499892E-2,8.249999955E-4
8.620738145E0,6.462499965E-3,1.553750038E-2,8.249999955E-4
8.630822776E0,1.072499994E-2,1.649999991E-3,3.024999984E-3
8.640907620E0,1.402499992E-2,-1.856249943E-2,3.024999984E-3
8.650992296E0,1.498750038E-2,-3.767500073E-2,8.387500420E-3
8.661077135E0,1.182499994E-2,-4.936249927E-2,1.154999994E-2
8.671161830E0,6.462499965E-3,-5.582499877E-2,1.361249946E-2
8.681246445E0,1.374999993E-4,-6.104999781E-2,1.787500083E-2
8.691331060E0,-4.124999978E-3,-6.435000151E-2,1.787500083E-2
8.701415905E0,-5.224999972E-3,-6.531249732E-2,1.691249944E-2
8.711500608E0,-1.044999994E-2,-5.898749828E-2,1.471249945E-2
8.721585443E0,-2.007500082E-2,-4.399999976E-2,1.154999994E-2
8.731670050E0,-2.969999984E-2,-3.024999984E-2,1.044999994E-2
8.741754745E0,-3.602499887E-2,-1.746249944E-2,1.044999994E-2
8.751839591E0,-4.028749838E-2,-1.512499992E-3,1.044999994E-2
8.761924285E0,-4.248749837E-2,1.333750039E-2,1.154999994E-2
8.772008886E0,-4.344999790E-2,2.942499891E-2,7.287499961E-3
8.782093740E0,-4.248749837E-2,4.743750021E-2,8.249999955E-4
8.792178434E0,-3.602499887E-2,6.022499874E-2,-5.499999970E-3
8.802263050E0,-2.749999985E-2,6.875000149E-2,-8.662499487E-3
8.812347670E0,-1.691249944E-2,7.933750004E-2,-1.086249948E-2
8.822432504E0,-1.044999994E-2,9.322500229E-2,-9.762499481E-3
8.832517189E0,-9.487500414E-3,8.786249906E-2,-1.237499993E-3
8.842602033E0,-1.924999990E-3,7.617499679E-2,6.187499966E-3
8.852686655E0,2.199999988E-3,6.022499874E-2,1.471249945E-2
8.862771346E0,7.562499959E-3,3.781250119E-2,2.213750035E-2
8.872855963E0,1.498750038E-2,2.516249940E-2,2.433750033E-2
8.882940802E0,2.034999989E-2,2.186249942E-2,2.529999986E-2
8.893025511E0,2.254999988E-2,2.406249940E-2,2.007500082E-2
8.903110146E0,1.828750037E-2,3.684999794E-2,1.361249946E-2
8.913194995E0,9.762499481E-3,5.596249923E-2,8.387500420E-3
8.923279689E0,2.199999988E-3,6.655000150E-2,5.087499972E-3
8.933364519E0,-1.924999990E-3,6.558749825E-2,1.924999990E-3
8.943449147E0,-4.124999978E-3,5.389999971E-2,3.024999984E-3
8.953533837E0,-3.024999984E-3,4.111250117E-2,3.024999984E-3
8.963618460E0,2.199999988E-3,3.684999794E-2,1.924999990E-3
8.973703317E0,7.562499959E-3,3.355000168E-2,3.024999984E-3
8.983788025E0,6.462499965E-3,3.464999795E-2,3.024999984E-3
8.993872636E0,5.499999970E-3,4.111250117E-2,1.924999990E-3
9.003957480E0,6.462499965E-3,5.169999972E-2,-1.374999993E-4
9.014042097E0,8.662499487E-3,5.486249924E-2,1.924999990E-3
9.024126784E0,1.498750038E-2,5.486249924E-2,5.087499972E-3
9.034211644E0,2.144999988E-2,5.279999971E-2,7.287499961E-3
9.044296261E0,2.351249941E-2,5.169999972E-2,1.044999994E-2
9.054380961E0,2.461249940E-2,5.389999971E-2,1.471249945E-2
9.064465798E0,2.461249940E-2,5.486249924E-2,1.581249945E-2
9.074550415E0,2.144999988E-2,5.596249923E-2,1.691249944E-2
9.084635105E0,1.498750038E-2,5.816249922E-2,2.007500082E-2
9.094719713E0,1.072499994E-2,6.338749826E-2,2.103750035E-2
9.104804539E0,9.762499481E-3,6.875000149E-2,1.787500083E-2
9.114889223E0,8.662499487E-3,7.411249727E-2,1.787500083E-2
9.124973839E0,8.662499487E-3,7.301250100E-2,1.787500083E-2
9.135058688E0,9.762499481E-3,7.301250100E-2,1.264999993E-2
9.145143367E0,1.072499994E-2,6.984999776E-2,7.287499961E-3
9.155228002E0,1.072499994E-2,5.912499875E-2,4.124999978E-3
9.165312841E0,6.462499965E-3,4.317500070E-2,3.024999984E-3
9.175397453E0,1.237499993E-3,2.406249940E-2,7.287499961E-3
9.185482163E0,-4.124999978E-3,-1.429999992E-2,1.264999993E-2
9.195567000E0,-5.224999972E-3,-5.156249925E-2,1.924999990E-3
9.205651612E0,-2.227500081E-2,2.749999985E-3,1.924999990E-3
9.215736287E0,-1.691249944E-2,4.949999973E-3,4.124999978E-3
9.225820891E0,-1.374999993E-2,-6.874999963E-3,1.154999994E-2
9.235905735E0,-2.639999986E-2,-2.804999985E-2,1.264999993E-2
9.245990434E0,-3.176249936E-2,-4.936249927E-2,9.349999949E-3
9.256075279E0,-3.286249936E-2,-6.531249732E-2,9.349999949E-3
9.266159900E0,-3.176249936E-2,-7.273750007E-2,7.287499961E-3
9.276244595E0,-3.712499887E-2,-5.898749828E-2,-2.337499987E-3
9.286329441E0,-4.881250113E-2,-4.619999975E-2,-1.292499993E-2
9.296414059E0,-4.881250113E-2,-3.767500073E-2,-2.144999988E-2
9.306498684E0,-3.286249936E-2,-2.914999984E-2,-2.571249940E-2
9.316583384E0,-2.227500081E-2,-3.767500073E-2,-2.254999988E-2
9.326668245E0,-1.801249944E-2,-6.104999781E-2,-1.938750036E-2
9.336752848E0,-1.691249944E-2,-7.493750006E-2,-1.608750038E-2
9.346837534E0,-1.154999994E-2,-7.919999957E-2,-1.512499992E-2
9.356922371E0,-5.224999972E-3,-6.861250103E-2,-1.828750037E-2
9.367007050E0,2.199999988E-3,-5.582499877E-2,-1.292499993E-2
9.377091680E0,1.072499994E-2,-5.898749828E-2,-7.562499959E-3
9.387176314E0,1.924999990E-2,-6.957499683E-2,-1.374999993E-4
9.397261158E0,2.461249940E-2,-8.346249908E-2,8.387500420E-3
9.407345794E0,3.093750030E-2,-9.198749810E-2,1.264999993E-2
9.417430499E0,3.519999981E-2,-9.515000135E-2,1.361249946E-2
9.427515336E0,2.997500077E-2,-9.515000135E-2,1.044999994E-2
9.437599953E0,2.034999989E-2,-9.308750182E-2,8.387500420E-3
9.447684634E0,6.462499965E-3,-8.772499859E-2,5.087499972E-3
9.457769266E0,-1.044999994E-2,-7.699999958E-2,1.924999990E-3
9.467854110E0,-1.801249944E-2,-7.067500055E-2,-5.499999970E-3
9.477938795E0,-1.471249945E-2,-6.215000153E-2,-1.608750038E-2
9.488023410E0,-1.044999994E-2,-5.788749829E-2,-2.144999988E-2
9.498108269E0,-1.374999993E-2,-4.936249927E-2,-2.144999988E-2
9.508192892E0,-2.117500082E-2,-4.509999976E-2,-1.402499992E-2
9.518277592E0,-3.066249937E-2,-4.509999976E-2,-9.762499481E-3
9.528362438E0,-4.248749837E-2,-3.987500072E-2,-5.499999970E-3
9.538447060E0,-5.513750017E-2,-3.767500073E-2,-6.599999964E-3
9.548531750E0,-5.939999968E-2,-3.877500072E-2,-1.086249948E-2
9.558616587E0,-5.197500065E-2,-3.987500072E-2,-1.512499992E-2
9.568701194E0,-3.176249936E-2,-4.083750024E-2,-1.938750036E-2
9.578785885E0,-8.387500420E-3,-4.509999976E-2,-2.144999988E-2
9.588870517E0,7.562499959E-3,-5.252499878E-2,-1.938750036E-2
9.598955370E0,2.034999989E-2,-6.324999779E-2,-1.182499994E-2
9.609039988E0,3.313750029E-2,-7.383749634E-2,-1.237499993E-3
9.619124664E0,3.629999980E-2,-8.346249908E-2,1.154999994E-2
9.629209305E0,3.093750030E-2,-8.456250280E-2,2.323750034E-2
9.639294164E0,2.254999988E-2,-7.383749634E-2,2.859999985E-2
9.649378796E0,1.498750038E-2,-6.008749828E-2,2.956249937E-2
9.659463486E0,1.237499993E-3,-4.303750023E-2,3.492499888E-2
9.669548333E0,-2.007500082E-2,-1.319999993E-2,4.661250114E-2
9.679632969E0,-3.396249935E-2,5.912499968E-3,5.939999968E-2
9.689717608E0,-3.492499888E-2,8.112499490E-3,6.159999967E-2
9.699802304E0,-3.066249937E-2,8.112499490E-3,4.977500066E-2
9.709887164E0,-2.117500082E-2,2.749999985E-3,3.602499887E-2
9.719971858E0,2.199999988E-3,-8.937500417E-3,2.323750034E-2
9.730056483E0,2.144999988E-2,-1.856249943E-2,1.471249945E-2
9.740141342E0,3.423750028E-2,-1.856249943E-2,1.154999994E-2
9.750225964E0,4.702499881E-2,-2.612499986E-3,9.349999949E-3
9.760310640E0,5.871250108E-2,1.663750038E-2,8.387500420E-3
9.770395491E0,6.187500060E-2,2.942499891E-2,1.044999994E-2
9.780480098E0,5.651250109E-2,3.258749843E-2,1.787500083E-2
9.790564793E0,4.482499883E-2,2.186249942E-2,2.433750033E-2
9.800649421E0,2.461249940E-2,3.849999979E-3,3.066249937E-2
9.810734269E0,3.299999982E-3,-1.113750041E-2,3.382499889E-2
9.820818954E0,-1.897500083E-2,-1.113750041E-2,3.602499887E-2
9.830903570E0,-3.286249936E-2,-7.837500423E-3,4.344999790E-2
9.840988170E0,-3.176249936E-2,-3.574999981E-3,4.881250113E-2
9.851073010E0,-2.227500081E-2,-2.612499986E-3,4.771250114E-2
9.861157695E0,-8.387500420E-3,-1.512499992E-3,4.344999790E-2
9.871242310E0,2.199999988E-3,1.649999991E-3,3.602499887E-2
9.881327144E0,-3.024999984E-3,4.949999973E-3,2.956249937E-2
9.891411737E0,-8.387500420E-3,-2.612499986E-3,1.691249944E-2
9.901496403E0,-1.264999993E-2,-1.539999992E-2,5.087499972E-3
9.911581240E0,-9.624999948E-4,-2.598750032E-2,1.154999994E-2
9.921665829E0,2.034999989E-2,-2.914999984E-2,3.382499889E-2
9.931750424E0,2.571249940E-2,-2.062499896E-2,4.771250114E-2
9.941835124E0,-1.924999990E-3,4.949999973E-3,4.344999790E-2
9.951919723E0,-4.124999978E-3,7.012499962E-3,3.382499889E-2
9.962004557E0,1.072499994E-2,-1.429999992E-2,3.286249936E-2
9.972089251E0,3.203750029E-2,-4.124999978E-4,3.602499887E-2
9.982173833E0,1.498750038E-2,4.001250118E-2,6.187499966E-3
9.992258673E0,1.828750037E-2,3.464999795E-2,-1.182499994E-2
1.000234329E1,6.393750012E-2,-1.003750041E-2,-7.562499959E-3
1.001242797E1,7.576250285E-2,-2.378750034E-2,-9.762499481E-3
1.002251280E1,4.908749834E-2,-1.539999992E-2,-3.107500076E-2
1.003259742E1,4.276249930E-2,-1.113750041E-2,-5.555000156E-2
1.004268209E1,6.187500060E-2,-2.488750033E-2,-5.981250107E-2
1.005276693E1,6.393750012E-2,-5.156249925E-2,-4.812499881E-2
1.006285131E1,2.144999988E-2,-4.619999975E-2,-3.849999979E-2
1.007293615E1,1.292499993E-2,-2.598750032E-2,-2.681249939E-2
1.008302084E1,-3.024999984E-3,-5.774999969E-3,-1.718750037E-2
1.009310546E1,1.374999993E-4,-2.612499986E-3,-2.337499987E-3
1.010319032E1,-1.897500083E-2,-4.124999978E-4,6.187499966E-3
1.011327503E1,-2.433750033E-2,-3.135000169E-2,8.387500420E-3
1.012335966E1,-1.374999993E-2,-8.456250280E-2,7.287499961E-3
1.013344451E1,-1.044999994E-2,-1.366750002E-1,-1.374999993E-4
1.014352913E1,-1.581249945E-2,-1.728374958E-1,-1.512499992E-2
1.015361384E1,-1.801249944E-2,-1.834249943E-1,-2.571249940E-2
1.016369845E1,-2.323750034E-2,-1.930499971E-1,-3.107500076E-2
1.017378331E1,-3.396249935E-2,-2.100999951E-1,-3.959999979E-2
1.018386792E1,-3.396249935E-2,-2.175250053E-1,-4.276249930E-2
1.019395260E1,-2.117500082E-2,-2.281125039E-1,-4.908749834E-2
1.020403745E1,-3.024999984E-3,-2.228875011E-1,-5.335000157E-2
1.021412216E1,-1.924999990E-3,-1.984124929E-1,-4.482499883E-2
1.022420677E1,1.072499994E-2,-1.748999953E-1,-2.681249939E-2
1.023429139E1,4.798749834E-2,-1.600500047E-1,-4.399999976E-3
1.024437625E1,5.651250109E-2,-1.153625026E-1,8.387500420E-3
1.025446094E1,6.393750012E-2,-1.856249943E-2,3.024999984E-3
1.026454555E1,7.988750190E-2,2.722499892E-2,-1.374999993E-4
1.027463040E1,8.415000141E-2,-2.914999984E-2,-4.399999976E-3
1.028471502E1,5.871250108E-2,-1.185249984E-1,-2.337499987E-3
1.029479971E1,2.144999988E-2,-1.898874938E-1,1.154999994E-2
1.030488456E1,-3.024999984E-3,-2.026749998E-1,1.897500083E-2
1.031496924E1,-9.487500414E-3,-1.589500010E-1,2.433750033E-2
1.032505387E1,-9.624999948E-4,-8.030000329E-2,2.529999986E-2
1.033513848E1,1.182499994E-2,1.237499993E-2,2.639999986E-2
1.034522330E1,2.777500078E-2,7.837499678E-2,3.066249937E-2
1.035530801E1,2.254999988E-2,9.955000132E-2,2.956249937E-2
1.036539262E1,2.199999988E-3,9.432499856E-2,2.529999986E-2
1.037547723E1,-1.691249944E-2,7.617499679E-2,2.213750035E-2
1.038556210E1,-1.154999994E-2,5.169999972E-2,2.007500082E-2
1.039564681E1,3.299999982E-3,5.596249923E-2,9.349999949E-3
1.040573142E1,-3.024999984E-3,9.432499856E-2,-5.499999970E-3
1.041581627E1,-9.487500414E-3,1.368124932E-1,-1.512499992E-2
1.042590098E1,-6.187499966E-3,1.484999955E-1,-1.608750038E-2
1.043598558E1,3.299999982E-3,1.347499937E-1,-5.499999970E-3
1.044607043E1,1.237499993E-3,1.251250058E-1,5.087499972E-3
1.045615504E1,-5.224999972E-3,1.240250021E-1,8.387500420E-3
1.046623971E1,4.399999976E-3,1.273249984E-1,1.044999994E-2
1.047632456E1,2.351249941E-2,1.165999994E-1,8.387500420E-3
1.048640918E1,2.571249940E-2,8.579999954E-2,6.187499966E-3
1.049649379E1,2.461249940E-2,4.853750020E-2,8.387500420E-3
1.050657850E1,2.351249941E-2,1.979999989E-2,6.187499966E-3
1.051666335E1,1.924999990E-2,-4.124999978E-4,3.024999984E-3
1.052674805E1,2.254999988E-2,-1.209999993E-2,8.249999955E-4
1.053683267E1,1.924999990E-2,-1.636249945E-2,-1.237499993E-3
1.054691726E1,1.182499994E-2,-2.598750032E-2,-2.337499987E-3
1.055700209E1,7.562499959E-3,-4.936249927E-2,-1.237499993E-3
1.056708678E1,3.299999982E-3,-8.236250281E-2,-2.337499987E-3
1.057717163E1,-3.024999984E-3,-1.057374999E-1,-3.437499981E-3
1.058725623E1,-2.007500082E-2,-1.079374999E-1,-3.437499981E-3
1.059734092E1,-2.859999985E-2,-1.111000031E-1,8.249999955E-4
1.060742554E1,-3.286249936E-2,-1.142624989E-1,4.124999978E-3
1.061751039E1,-3.602499887E-2,-1.216875017E-1,3.024999984E-3
1.062759507E1,-3.176249936E-2,-1.313125044E-1,-1.237499993E-3
1.063767970E1,-2.639999986E-2,-1.494625062E-1,-9.762499481E-3
1.064776453E1,-2.323750034E-2,-1.707749963E-1,-1.402499992E-2
1.065784921E1,-1.801249944E-2,-1.930499971E-1,-2.034999989E-2
1.066793382E1,-1.801249944E-2,-2.154625058E-1,-2.461249940E-2
1.067801866E1,-2.227500081E-2,-2.323749959E-1,-2.997500077E-2
1.068810328E1,-2.639999986E-2,-2.516250014E-1,-3.533750027E-2
1.069818796E1,-2.749999985E-2,-2.451625019E-1,-4.056249931E-2
1.070827280E1,-2.749999985E-2,-2.175250053E-1,-3.849999979E-2
1.071835740E1,-2.639999986E-2,-2.015749961E-1,-3.107500076E-2
1.072844209E1,-2.227500081E-2,-1.941500008E-1,-2.254999988E-2
1.073852696E1,-1.691249944E-2,-1.887875050E-1,-1.292499993E-2
1.074861156E1,-1.044999994E-2,-1.739374995E-1,-8.662499487E-3
1.075869624E1,-1.154999994E-2,-1.483625025E-1,-8.662499487E-3
1.076878087E1,-8.387500420E-3,-1.153625026E-1,-8.662499487E-3
1.077886579E1,5.499999970E-3,-6.435000151E-2,-9.762499481E-3
1.078895041E1,1.828750037E-2,-3.574999981E-3,-9.762499481E-3
1.079903501E1,3.093750030E-2,6.338749826E-2,-5.499999970E-3
1.080911986E1,4.056249931E-2,1.347499937E-1,1.924999990E-3
1.081920448E1,4.482499883E-2,1.974499971E-1,1.264999993E-2
1.082928917E1,4.592499882E-2,2.454375029E-1,2.103750035E-2
1.083937404E1,4.702499881E-2,2.804999948E-1,2.859999985E-2
1.084945866E1,4.482499883E-2,3.114374876E-1,2.859999985E-2
1.085954335E1,3.629999980E-2,3.422375023E-1,2.103750035E-2
1.086962797E1,2.571249940E-2,3.581874967E-1,1.897500083E-2
1.087971281E1,1.608750038E-2,3.624500036E-1,1.361249946E-2
1.088979752E1,4.399999976E-3,3.603875041E-1,9.349999949E-3
1.089988213E1,-9.487500414E-3,3.539249897E-1,8.387500420E-3
1.090996696E1,-2.433750033E-2,3.454000056E-1,7.287499961E-3
1.092005158E1,-3.492499888E-2,3.359124959E-1,1.044999994E-2
1.093013626E1,-4.344999790E-2,3.422375023E-1,1.924999990E-3
1.094022111E1,-3.396249935E-2,3.475999832E-1,-2.337499987E-3
1.095030572E1,-1.924999990E-3,3.029125035E-1,-2.337499987E-3
1.096039041E1,1.718750037E-2,2.762374878E-1,-1.828750037E-2
1.097047527E1,2.777500078E-2,2.784374952E-1,-3.959999979E-2
1.098055987E1,4.166249931E-2,2.528625131E-1,-3.739999980E-2
1.099064450E1,3.423750028E-2,2.070749998E-1,-2.461249940E-2
1.100072921E1,1.718750037E-2,1.772374958E-1,-2.571249940E-2
1.101081405E1,1.608750038E-2,1.623875052E-1,-3.629999980E-2
1.102089874E1,-9.624999948E-4,1.358499974E-1,-4.166249931E-2
1.103098336E1,-2.227500081E-2,1.112374961E-1,-4.386249930E-2
1.104106819E1,-3.066249937E-2,8.263749629E-2,-4.386249930E-2
1.105115281E1,-2.749999985E-2,4.743750021E-2,-3.959999979E-2
1.106123752E1,-1.581249945E-2,1.663750038E-2,-3.629999980E-2
1.107132237E1,-9.624999948E-4,-2.612499986E-3,-3.423750028E-2
1.108140697E1,1.718750037E-2,-1.746249944E-2,-2.887500077E-2
1.109149166E1,3.203750029E-2,-3.657500073E-2,-2.254999988E-2
1.110157651E1,4.056249931E-2,-5.678749830E-2,-1.292499993E-2
1.111166115E1,4.166249931E-2,-6.957499683E-2,-4.399999976E-3
1.112174587E1,3.423750028E-2,-7.493750006E-2,4.124999978E-3
1.113183048E1,2.144999988E-2,-6.008749828E-2,4.124999978E-3
1.114191533E1,8.662499487E-3,-3.451250121E-2,-1.374999993E-4
1.115200002E1,-5.224999972E-3,2.749999985E-3,-1.182499994E-2
1.116208465E1,-1.801249944E-2,2.942499891E-2,-1.718750037E-2
1.117216949E1,-2.859999985E-2,2.832499892E-2,-1.402499992E-2
1.118225411E1,-3.286249936E-2,2.832499892E-2,-8.662499487E-3
1.119233878E1,-2.969999984E-2,3.258749843E-2,-3.437499981E-3
1.120242362E1,-2.859999985E-2,4.317500070E-2,-2.337499987E-3
1.121250830E1,-3.176249936E-2,5.486249924E-2,8.249999955E-4
1.122259291E1,-2.969999984E-2,6.338749826E-2,4.124999978E-3
1.123267774E1,-2.007500082E-2,5.816249922E-2,1.154999994E-2
1.124276235E1,-5.224999972E-3,4.001250118E-2,1.787500083E-2
1.125284704E1,7.562499959E-3,1.663750038E-2,2.433750033E-2
1.126293167E1,1.292499993E-2,-6.874999963E-3,2.749999985E-2
1.127301651E1,9.762499481E-3,-2.708750032E-2,2.859999985E-2
1.128310122E1,2.199999988E-3,-4.826249927E-2,2.749999985E-2
1.129318608E1,1.237499993E-3,-6.957499683E-2,2.007500082E-2
1.130327071E1,1.374999993E-4,-8.552499861E-2,1.044999994E-2
1.131335531E1,1.374999993E-4,-9.721250087E-2,8.249999955E-4
1.132344000E1,-9.624999948E-4,-1.111000031E-1,-4.399999976E-3
1.133352484E1,-1.924999990E-3,-1.302125007E-1,-3.437499981E-3
1.134360954E1,1.237499993E-3,-1.472624987E-1,8.249999955E-4
1.135369415E1,7.562499959E-3,-1.611499935E-1,6.187499966E-3
1.136377900E1,1.182499994E-2,-1.707749963E-1,1.361249946E-2
1.137386360E1,1.498750038E-2,-1.717374921E-1,1.691249944E-2
1.138394830E1,1.292499993E-2,-1.707749963E-1,2.213750035E-2
1.139403291E1,6.462499965E-3,-1.674750000E-1,2.323750034E-2
1.140411776E1,-3.024999984E-3,-1.589500010E-1,2.103750035E-2
1.141420245E1,-1.471249945E-2,-1.463000029E-1,1.691249944E-2
1.142428730E1,-2.859999985E-2,-1.292500049E-1,1.361249946E-2
1.143437192E1,-3.822499886E-2,-1.090374961E-1,9.349999949E-3
1.144445661E1,-4.455000162E-2,-8.552499861E-2,4.124999978E-3
1.145454123E1,-4.564999789E-2,-5.582499877E-2,8.249999955E-4
1.146462608E1,-3.712499887E-2,-3.135000169E-2,-2.337499987E-3
1.147471070E1,-2.007500082E-2,-1.952499896E-2,-9.762499481E-3
1.148479538E1,-3.024999984E-3,-2.612499986E-3,-1.292499993E-2
1.149488021E1,-9.624999948E-4,2.516249940E-2,-2.364999987E-2
1.150496483E1,-5.224999972E-3,3.464999795E-2,-2.144999988E-2
1.151504952E1,-1.374999993E-2,3.849999979E-3,-1.086249948E-2
1.152513414E1,-2.969999984E-2,-1.539999992E-2,3.024999984E-3
1.153521897E1,-4.344999790E-2,-1.952499896E-2,1.044999994E-2
1.154530367E1,-4.675000161E-2,-5.774999969E-3,1.581249945E-2
1.155538830E1,-4.455000162E-2,1.663750038E-2,1.897500083E-2
1.156547314E1,-3.602499887E-2,4.207500070E-2,2.323750034E-2
1.157555783E1,-2.543750033E-2,5.279999971E-2,2.749999985E-2
1.158564243E1,-2.227500081E-2,4.743750021E-2,3.382499889E-2
1.159572728E1,-2.227500081E-2,3.258749843E-2,3.918749839E-2
1.160581190E1,-1.897500083E-2,2.089999989E-2,4.551250115E-2
1.161589659E1,-1.801249944E-2,7.012499962E-3,4.771250114E-2
1.162598120E1,-1.801249944E-2,1.333750039E-2,4.661250114E-2
1.163606605E1,-1.581249945E-2,3.258749843E-2,3.712499887E-2
1.164615066E1,-8.387500420E-3,4.743750021E-2,2.859999985E-2
1.165623534E1,-9.487500414E-3,6.132499874E-2,2.213750035E-2
1.166632019E1,-2.007500082E-2,6.655000150E-2,1.581249945E-2
1.167640490E1,-2.323750034E-2,7.191249728E-2,1.044999994E-2
1.168648953E1,-2.543750033E-2,8.676250279E-2,4.124999978E-3
1.169657413E1,-2.639999986E-2,1.123374999E-1,-2.337499987E-3
1.170665898E1,-1.691249944E-2,1.293874979E-1,-6.599999964E-3
1.171674367E1,-9.487500414E-3,1.347499937E-1,-9.762499481E-3
1.172682830E1,-6.187499966E-3,1.315875053E-1,-9.762499481E-3
1.173691315E1,3.299999982E-3,1.197625026E-1,-1.086249948E-2
1.174699784E1,9.762499481E-3,1.028499976E-1,-1.086249948E-2
1.175708245E1,1.608750038E-2,8.676250279E-2,-1.182499994E-2
1.176716707E1,2.254999988E-2,6.984999776E-2,-1.086249948E-2
1.177725192E1,2.461249940E-2,4.963750020E-2,-6.599999964E-3
1.178733660E1,2.351249941E-2,2.089999989E-2,-3.437499981E-3
1.179742145E1,1.182499994E-2,-1.003750041E-2,-3.437499981E-3
1.180750607E1,-7.287499961E-3,-3.451250121E-2,-5.499999970E-3
1.181759069E1,-2.433750033E-2,-5.472499877E-2,-8.662499487E-3
1.182767537E1,-3.492499888E-2,-7.699999958E-2,-1.086249948E-2
1.183776022E1,-3.712499887E-2,-9.721250087E-2,-1.292499993E-2
1.184784483E1,-3.602499887E-2,-1.132999957E-1,-1.718750037E-2
1.185792950E1,-3.066249937E-2,-1.227874979E-1,-2.144999988E-2
1.186801412E1,-2.117500082E-2,-1.313125044E-1,-2.571249940E-2
1.187809897E1,-7.287499961E-3,-1.366750002E-1,-2.681249939E-2
1.188818358E1,6.462499965E-3,-1.387374997E-1,-2.681249939E-2
1.189826827E1,1.292499993E-2,-1.355749965E-1,-2.681249939E-2
1.190835309E1,1.498750038E-2,-1.270499974E-1,-2.461249940E-2
1.191843773E1,1.718750037E-2,-1.216875017E-1,-2.034999989E-2
1.192852235E1,2.034999989E-2,-1.153625026E-1,-1.402499992E-2
1.193860727E1,2.144999988E-2,-1.047749966E-1,-7.562499959E-3
1.194869189E1,1.828750037E-2,-8.030000329E-2,-4.399999976E-3
1.195877652E1,2.254999988E-2,-4.826249927E-2,8.249999955E-4
1.196886121E1,3.203750029E-2,-2.062499896E-2,6.187499966E-3
1.197894613E1,3.946249932E-2,4.949999973E-3,7.287499961E-3
1.198903065E1,4.166249931E-2,3.038750030E-2,8.249999955E-4
1.199911535E1,3.849999979E-2,5.816249922E-2,-7.562499959E-3
1.200920000E1,3.739999980E-2,7.507500052E-2,-1.828750037E-2
1.201928483E1,3.423750028E-2,8.153750002E-2,-2.571249940E-2
1.202936953E1,2.461249940E-2,8.043749630E-2,-2.997500077E-2
1.203945416E1,1.924999990E-2,6.984999776E-2,-2.887500077E-2
1.204953900E1,1.292499993E-2,5.816249922E-2,-2.254999988E-2
1.205962362E1,9.762499481E-3,4.537500069E-2,-1.292499993E-2
1.206970831E1,9.762499481E-3,3.464999795E-2,-3.437499981E-3
1.207979293E1,7.562499959E-3,3.038750030E-2,4.124999978E-3
1.208987777E1,5.499999970E-3,2.722499892E-2,1.154999994E-2
1.209996248E1,-1.924999990E-3,2.832499892E-2,1.361249946E-2
1.211004711E1,-1.154999994E-2,2.406249940E-2,1.361249946E-2
1.212013194E1,-2.007500082E-2,1.127499994E-2,1.264999993E-2
1.213021655E1,-2.969999984E-2,-7.837500423E-3,1.044999994E-2
1.214030118E1,-4.028749838E-2,-2.062499896E-2,7.287499961E-3
1.215038585E1,-3.712499887E-2,-2.378750034E-2,3.024999984E-3
1.216047069E1,-2.859999985E-2,-5.774999969E-3,3.024999984E-3
1.217055539E1,-1.374999993E-2,-1.113750041E-2,9.349999949E-3
1.218064001E1,1.237499993E-3,-1.512499992E-3,1.924999990E-3
1.219072484E1,1.498750038E-2,2.186249942E-2,-6.599999964E-3
1.220080943E1,2.571249940E-2,3.355000168E-2,-1.608750038E-2
1.221089406E1,2.887500077E-2,4.001250118E-2,-1.608750038E-2
1.222097875E1,3.203750029E-2,4.537500069E-2,-1.182499994E-2
1.223106359E1,2.997500077E-2,5.596249923E-2,-7.562499959E-3
1.224114828E1,2.034999989E-2,7.507500052E-2,-2.337499987E-3
1.225123288E1,1.182499994E-2,1.017500013E-1,-2.337499987E-3
1.226131773E1,1.498750038E-2,1.282874942E-1,-8.662499487E-3
1.227140234E1,5.499999970E-3,1.262249947E-1,-4.399999976E-3
1.228148702E1,-9.487500414E-3,1.282874942E-1,-8.662499487E-3
1.229157164E1,-9.624999948E-4,1.698125005E-1,-8.662499487E-3
1.230165650E1,1.374999993E-4,1.720124930E-1,-1.237499993E-3
1.231174114E1,-4.124999978E-3,1.623875052E-1,5.087499972E-3
1.232182583E1,-4.124999978E-3,1.698125005E-1,1.264999993E-2
1.233191046E1,-7.287499961E-3,1.836999953E-1,1.471249945E-2
1.234199531E1,-1.581249945E-2,1.942874938E-1,1.581249945E-2
1.235207994E1,-3.712499887E-2,1.911250055E-1,1.787500083E-2
1.236216456E1,-5.733750015E-2,1.666499972E-1,2.103750035E-2
1.237224925E1,-5.623750016E-2,1.262249947E-1,1.787500083E-2
1.238233410E1,-3.396249935E-2,8.676250279E-2,1.264999993E-2
1.239241873E1,4.399999976E-3,6.448750198E-2,3.024999984E-3
1.240250340E1,3.629999980E-2,6.338749826E-2,-1.292499993E-2
1.241258803E1,5.967500061E-2,7.727500051E-2,-2.681249939E-2
1.242267289E1,7.576250285E-2,8.896250278E-2,-3.423750028E-2
1.243275760E1,7.466249913E-2,8.470000327E-2,-3.423750028E-2
1.244284245E1,6.297499686E-2,7.191249728E-2,-3.107500076E-2
1.245292705E1,4.798749834E-2,5.486249924E-2,-2.887500077E-2
1.246301166E1,3.739999980E-2,3.781250119E-2,-2.461249940E-2
1.247309633E1,2.997500077E-2,2.186249942E-2,-2.364999987E-2
1.248318118E1,2.571249940E-2,9.074999951E-3,-2.034999989E-2
1.249326579E1,2.351249941E-2,-1.512499992E-3,-2.144999988E-2
1.250335039E1,2.254999988E-2,-1.319999993E-2,-2.364999987E-2
1.251343510E1,2.351249941E-2,-2.282499894E-2,-2.461249940E-2
1.252351972E1,2.571249940E-2,-2.598750032E-2,-2.364999987E-2
1.253360457E1,2.254999988E-2,-2.282499894E-2,-2.034999989E-2
1.254368925E1,1.828750037E-2,-1.746249944E-2,-2.034999989E-2
1.255377384E1,1.292499993E-2,-7.837500423E-3,-2.144999988E-2
1.256385847E1,9.762499481E-3,-2.612499986E-3,-2.034999989E-2
1.257394333E1,8.662499487E-3,-6.874999963E-3,-1.828750037E-2
1.258402800E1,1.072499994E-2,-1.952499896E-2,-1.292499993E-2
1.259411285E1,1.608750038E-2,-3.341250122E-2,-8.662499487E-3
1.260419747E1,2.351249941E-2,-3.987500072E-2,-6.599999964E-3
1.261428207E1,2.351249941E-2,-4.399999976E-2,-6.599999964E-3
1.262436676E1,2.034999989E-2,-4.399999976E-2,-3.437499981E-3
1.263445138E1,1.292499993E-2,-4.303750023E-2,-1.374999993E-4
1.264453621E1,2.199999988E-3,-4.729999974E-2,6.187499966E-3
1.265462084E1,-9.487500414E-3,-5.362499878E-2,1.471249945E-2
1.266470553E1,-1.264999993E-2,-5.788749829E-2,1.897500083E-2
1.267479015E1,-1.374999993E-2,-5.788749829E-2,2.213750035E-2
1.268487499E1,-1.154999994E-2,-4.936249927E-2,2.103750035E-2
1.269495960E1,-5.224999972E-3,-4.193750024E-2,1.691249944E-2
1.270504429E1,-3.024999984E-3,-4.083750024E-2,1.044999994E-2
1.271512912E1,1.374999993E-4,-4.619999975E-2,4.124999978E-3
1.272521372E1,3.299999982E-3,-5.046249926E-2,-1.237499993E-3
1.273529841E1,3.299999982E-3,-5.156249925E-2,-5.499999970E-3
1.274538305E1,4.399999976E-3,-5.156249925E-2,-3.437499981E-3
1.275546789E1,5.499999970E-3,-5.046249926E-2,-3.437499981E-3
1.276555247E1,5.499999970E-3,-5.156249925E-2,1.924999990E-3
1.277563708E1,2.199999988E-3,-5.252499878E-2,7.287499961E-3
1.278572176E1,4.399999976E-3,-4.936249927E-2,1.154999994E-2
1.279580660E1,8.662499487E-3,-4.729999974E-2,1.361249946E-2
1.280589123E1,8.662499487E-3,-4.399999976E-2,1.581249945E-2
1.281597592E1,1.237499993E-3,-3.987500072E-2,1.691249944E-2
1.282606056E1,-6.187499966E-3,-4.509999976E-2,2.007500082E-2
1.283614517E1,-1.691249944E-2,-6.435000151E-2,2.213750035E-2
1.284623001E1,-3.176249936E-2,-6.215000153E-2,2.433750033E-2
1.285631470E1,-4.138749838E-2,-6.104999781E-2,2.433750033E-2
1.286639933E1,-4.455000162E-2,-6.531249732E-2,1.691249944E-2
1.287648418E1,-4.248749837E-2,-6.104999781E-2,7.287499961E-3
1.288656880E1,-3.712499887E-2,-4.826249927E-2,4.124999978E-3
1.289665349E1,-2.969999984E-2,-4.303750023E-2,3.024999984E-3
1.290673810E1,-2.117500082E-2,-4.399999976E-2,8.249999955E-4
1.291682294E1,-1.044999994E-2,-4.509999976E-2,3.024999984E-3
1.292690756E1,-1.924999990E-3,-4.083750024E-2,3.024999984E-3
1.293699220E1,5.499999970E-3,-3.024999984E-2,4.124999978E-3
1.294707689E1,1.072499994E-2,-2.062499896E-2,3.024999984E-3
1.295716175E1,1.608750038E-2,-8.937500417E-3,5.087499972E-3
1.296724636E1,1.924999990E-2,-2.612499986E-3,7.287499961E-3
1.297733108E1,2.144999988E-2,-1.512499992E-3,8.387500420E-3
1.298741571E1,2.351249941E-2,4.949999973E-3,8.249999955E-4
1.299750055E1,2.571249940E-2,1.553750038E-2,-1.237499993E-3
1.300758517E1,2.571249940E-2,1.663750038E-2,-1.237499993E-3
1.301766984E1,1.498750038E-2,2.089999989E-2,-1.374999993E-4
1.302775445E1,-9.624999948E-4,2.942499891E-2,8.249999955E-4
1.303783928E1,-1.691249944E-2,3.781250119E-2,-1.374999993E-4
1.304792386E1,-3.066249937E-2,4.427500069E-2,-1.237499993E-3
1.305800856E1,-4.344999790E-2,4.537500069E-2,-1.237499993E-3
1.306809316E1,-4.771250114E-2,3.684999794E-2,3.024999984E-3
1.307817778E1,-4.675000161E-2,2.516249940E-2,9.349999949E-3
1.308826262E1,-4.028749838E-2,1.553750038E-2,1.581249945E-2
1.309834732E1,-3.176249936E-2,2.296249941E-2,2.103750035E-2
1.310843193E1,-2.007500082E-2,3.355000168E-2,2.749999985E-2
1.311851656E1,-8.387500420E-3,5.169999972E-2,2.529999986E-2
1.312860139E1,3.299999982E-3,7.727500051E-2,2.103750035E-2
1.313868607E1,1.924999990E-2,8.896250278E-2,1.897500083E-2
1.314877068E1,3.423750028E-2,8.359999955E-2,1.691249944E-2
1.315885529E1,4.372499883E-2,6.655000150E-2,1.691249944E-2
1.316894014E1,4.482499883E-2,4.537500069E-2,1.787500083E-2
1.317902476E1,3.313750029E-2,2.832499892E-2,2.213750035E-2
1.318910948E1,1.608750038E-2,2.406249940E-2,2.213750035E-2
1.319919410E1,1.237499993E-3,3.258749843E-2,2.213750035E-2
1.320927898E1,-1.691249944E-2,4.853750020E-2,2.213750035E-2
1.321936359E1,-2.969999984E-2,6.764999777E-2,2.323750034E-2
1.322944829E1,-3.396249935E-2,7.617499679E-2,2.749999985E-2
1.323953292E1,-4.028749838E-2,8.043749630E-2,3.602499887E-2
1.324961757E1,-4.881250113E-2,9.748750180E-2,3.712499887E-2
1.325970241E1,-5.623750016E-2,1.197625026E-1,4.235000163E-2
1.326978701E1,-4.881250113E-2,1.304875016E-1,4.551250115E-2
1.327987171E1,-3.286249936E-2,1.399749964E-1,4.551250115E-2
1.328995632E1,-1.581249945E-2,1.475374997E-1,4.235000163E-2
1.330004117E1,-1.924999990E-3,1.507000029E-1,3.918749839E-2
1.331012579E1,9.762499481E-3,1.484999955E-1,3.712499887E-2
1.332021048E1,1.498750038E-2,1.262249947E-1,3.808749840E-2
1.333029510E1,1.718750037E-2,9.322500229E-2,4.235000163E-2
1.334037996E1,1.924999990E-2,6.338749826E-2,4.551250115E-2
1.335046460E1,1.718750037E-2,4.207500070E-2,4.771250114E-2
1.336054931E1,8.662499487E-3,2.296249941E-2,5.197500065E-2
1.337063392E1,-1.924999990E-3,1.649999991E-3,5.197500065E-2
1.338071876E1,-1.581249945E-2,-1.003750041E-2,4.881250113E-2
1.339080336E1,-2.227500081E-2,5.912499968E-3,4.028749838E-2
1.340088803E1,-2.007500082E-2,2.942499891E-2,2.859999985E-2
1.341097264E1,-1.801249944E-2,5.816249922E-2,1.691249944E-2
1.342105750E1,-8.387500420E-3,9.102500230E-2,5.087499972E-3
1.343114210E1,3.299999982E-3,1.080750003E-1,-3.437499981E-3
1.344122672E1,1.608750038E-2,1.134374961E-1,-1.086249948E-2
1.345131144E1,2.461249940E-2,1.187999994E-1,-1.512499992E-2
1.346139608E1,3.423750028E-2,1.240250021E-1,-1.512499992E-2
1.347148092E1,4.482499883E-2,1.282874942E-1,-1.402499992E-2
1.348156555E1,5.018749833E-2,1.282874942E-1,-8.662499487E-3
1.349165023E1,5.335000157E-2,1.315875053E-1,-2.337499987E-3
1.350173508E1,5.224999785E-2,1.282874942E-1,8.249999955E-4
1.351181944E1,4.702499881E-2,1.230624989E-1,8.249999955E-4
1.352190428E1,4.276249930E-2,1.165999994E-1,-1.237499993E-3
1.353198895E1,3.423750028E-2,1.038125008E-1,-3.437499981E-3
1.354207356E1,2.254999988E-2,9.432499856E-2,-8.662499487E-3
1.355215839E1,1.828750037E-2,7.727500051E-2,-8.662499487E-3
1.356224301E1,1.828750037E-2,5.486249924E-2,-1.292499993E-2
1.357232762E1,1.608750038E-2,4.633750021E-2,-2.144999988E-2
1.358241231E1,1.924999990E-2,2.406249940E-2,-2.791249938E-2
1.359249692E1,2.777500078E-2,-1.636249945E-2,-3.629999980E-2
1.360258176E1,2.887500077E-2,-3.877500072E-2,-4.386249930E-2
1.361266638E1,2.667500079E-2,-6.531249732E-2,-4.386249930E-2
1.362275097E1,1.402499992E-2,-7.809999585E-2,-4.166249931E-2
1.363283564E1,-2.543750033E-2,-4.826249927E-2,-3.849999979E-2
1.364292026E1,-4.455000162E-2,-7.837500423E-3,-2.791249938E-2
1.365300508E1,-4.881250113E-2,1.017499994E-2,-1.718750037E-2
1.366308971E1,-5.623750016E-2,1.979999989E-2,-5.499999970E-3
1.367317432E1,-4.138749838E-2,3.258749843E-2,1.691249944E-2
1.368325904E1,-3.602499887E-2,7.012499962E-3,2.529999986E-2
1.369334365E1,-5.843750015E-2,3.891250119E-2,2.103750035E-2
1.370342850E1,-4.771250114E-2,1.017500013E-1,1.044999994E-2
1.371351313E1,-1.154999994E-2,1.262249947E-1,5.087499972E-3
1.372359784E1,2.351249941E-2,1.219625026E-1,5.087499972E-3
1.373368244E1,5.335000157E-2,1.080750003E-1,5.087499972E-3
1.374376705E1,7.039999962E-2,9.638749808E-2,6.187499966E-3
1.375385189E1,6.929999590E-2,8.359999955E-2,9.349999949E-3
1.376393659E1,5.871250108E-2,7.617499679E-2,1.044999994E-2
1.377402122E1,4.482499883E-2,6.875000149E-2,1.044999994E-2
1.378410583E1,3.093750030E-2,6.228749827E-2,8.387500420E-3
1.379419069E1,1.498750038E-2,6.655000150E-2,6.187499966E-3
1.380427537E1,1.374999993E-4,6.984999776E-2,3.024999984E-3
1.381436002E1,-1.154999994E-2,6.655000150E-2,-3.437499981E-3
1.382444462E1,-1.374999993E-2,5.912499875E-2,-1.182499994E-2
1.383452946E1,-1.897500083E-2,6.132499874E-2,-1.828750037E-2
1.384461405E1,-2.227500081E-2,6.022499874E-2,-1.938750036E-2
1.385469866E1,-5.224999972E-3,4.001250118E-2,-1.512499992E-2
1.386478333E1,8.662499487E-3,1.869999990E-2,-6.599999964E-3
1.387486796E1,1.608750038E-2,7.012499962E-3,1.924999990E-3
1.388495281E1,2.351249941E-2,2.749999985E-3,5.087499972E-3
1.389503744E1,3.203750029E-2,7.012499962E-3,4.124999978E-3
1.390512206E1,3.519999981E-2,1.553750038E-2,8.249999955E-4
1.391520676E1,3.203750029E-2,2.089999989E-2,-2.337499987E-3
1.392529138E1,2.571249940E-2,2.296249941E-2,-3.437499981E-3
1.393537623E1,2.351249941E-2,3.355000168E-2,-4.399999976E-3
1.394546083E1,2.144999988E-2,4.963750020E-2,-9.762499481E-3
1.395554546E1,1.608750038E-2,6.764999777E-2,-1.608750038E-2
1.396563013E1,2.034999989E-2,6.022499874E-2,-1.608750038E-2
1.397571497E1,2.461249940E-2,7.081250101E-2,-1.402499992E-2
1.398579959E1,2.667500079E-2,8.153750002E-2,-1.402499992E-2
1.399588418E1,2.887500077E-2,8.579999954E-2,-1.292499993E-2
1.400596879E1,3.313750029E-2,9.748750180E-2,-1.512499992E-2
1.401605349E1,3.739999980E-2,1.112374961E-1,-2.034999989E-2
1.402613811E1,3.519999981E-2,1.208624989E-1,-2.364999987E-2
1.403622296E1,3.203750029E-2,1.219625026E-1,-2.254999988E-2
1.404630758E1,2.667500079E-2,1.187999994E-1,-2.034999989E-2
1.405639220E1,1.718750037E-2,1.145374998E-1,-1.608750038E-2
1.406647689E1,-3.024999984E-3,1.145374998E-1,-9.762499481E-3
1.407656151E1,-2.227500081E-2,1.251250058E-1,-4.399999976E-3
1.408664636E1,-2.543750033E-2,1.315875053E-1,8.249999955E-4
1.409673097E1,-1.691249944E-2,1.251250058E-1,3.024999984E-3
1.410681568E1,-1.044999994E-2,9.858749807E-2,3.024999984E-3
1.411690028E1,-1.044999994E-2,6.338749826E-2,1.924999990E-3
1.412698512E1,-1.924999990E-3,3.891250119E-2,-1.237499993E-3
1.413706974E1,1.402499992E-2,1.663750038E-2,-5.499999970E-3
1.414715437E1,2.887500077E-2,-2.612499986E-3,-1.182499994E-2
1.415723901E1,2.887500077E-2,6.874999963E-4,-1.718750037E-2
1.416732371E1,2.461249940E-2,9.074999951E-3,-2.461249940E-2
1.417740857E1,3.299999982E-3,1.237499993E-2,-4.386249930E-2
1.418749298E1,-3.822499886E-2,3.355000168E-2,-4.056249931E-2
1.419757781E1,-6.187499966E-3,3.891250119E-2,-1.608750038E-2
1.420766244E1,4.166249931E-2,5.912499968E-3,6.187499966E-3
1.421774712E1,3.519999981E-2,6.874999963E-4,1.264999993E-2
1.422783173E1,1.498750038E-2,3.684999794E-2,9.349999949E-3
1.423791635E1,1.292499993E-2,6.984999776E-2,7.287499961E-3
1.424800118E1,1.718750037E-2,8.579999954E-2,8.387500420E-3
1.425808579E1,2.997500077E-2,8.263749629E-2,1.044999994E-2
1.426817049E1,3.423750028E-2,7.301250100E-2,9.349999949E-3
1.427825508E1,3.313750029E-2,7.727500051E-2,3.024999984E-3
1.428833992E1,3.093750030E-2,9.102500230E-2,-1.237499993E-3
1.429842454E1,2.667500079E-2,1.102750003E-1,-5.499999970E-3
1.430850917E1,2.887500077E-2,1.262249947E-1,-9.762499481E-3
1.431859385E1,3.629999980E-2,1.028499976E-1,-1.292499993E-2
1.432867846E1,2.461249940E-2,9.212499857E-2,-1.512499992E-2
1.433876329E1,7.562499959E-3,1.038125008E-1,-1.938750036E-2
1.434884790E1,4.399999976E-3,1.060125008E-1,-2.034999989E-2
1.435893258E1,5.499999970E-3,1.017500013E-1,-1.828750037E-2
1.436901717E1,8.662499487E-3,1.028499976E-1,-1.512499992E-2
1.437910201E1,1.292499993E-2,1.060125008E-1,-1.086249948E-2
1.438918663E1,2.034999989E-2,1.071124971E-1,-4.399999976E-3
1.439927124E1,2.667500079E-2,1.071124971E-1,-1.374999993E-4
1.440935594E1,3.203750029E-2,1.060125008E-1,4.124999978E-3
1.441944056E1,2.571249940E-2,1.091749966E-1,9.349999949E-3
1.442952518E1,2.034999989E-2,1.038125008E-1,6.187499966E-3
1.443961003E1,2.461249940E-2,8.043749630E-2,1.361249946E-2
1.444969466E1,1.924999990E-2,6.022499874E-2,1.264999993E-2
1.445977935E1,1.292499993E-2,4.963750020E-2,6.187499966E-3
1.446986399E1,2.034999989E-2,3.355000168E-2,3.024999984E-3
1.447994861E1,2.034999989E-2,2.406249940E-2,8.249999955E-4
1.449003322E1,1.072499994E-2,1.663750038E-2,-5.499999970E-3
1.450011807E1,3.299999982E-3,5.912499968E-3,-1.292499993E-2
1.451020269E1,-1.924999990E-3,-4.674999975E-3,-1.718750037E-2
1.452028738E1,-6.187499966E-3,-5.774999969E-3,-2.144999988E-2
1.453037199E1,-7.287499961E-3,2.749999985E-3,-2.571249940E-2
1.454045660E1,-4.124999978E-3,1.553750038E-2,-3.217500076E-2
1.455054144E1,1.237499993E-3,2.612499893E-2,-3.739999980E-2
1.456062615E1,7.562499959E-3,4.001250118E-2,-4.386249930E-2
1.457071076E1,1.718750037E-2,4.743750021E-2,-3.959999979E-2
1.458079538E1,2.571249940E-2,4.633750021E-2,-3.107500076E-2
1.459088022E1,3.203750029E-2,4.633750021E-2,-2.144999988E-2
1.460096484E1,3.423750028E-2,4.963750020E-2,-1.292499993E-2
1.461104952E1,3.423750028E-2,4.963750020E-2,-6.599999964E-3
1.462113416E1,3.739999980E-2,4.743750021E-2,-2.337499987E-3
1.463121877E1,3.849999979E-2,4.111250117E-2,-1.374999993E-4
1.464130338E1,3.423750028E-2,3.355000168E-2,-1.374999993E-4
1.465138820E1,2.254999988E-2,3.684999794E-2,8.249999955E-4
1.466147288E1,9.762499481E-3,4.743750021E-2,-1.374999993E-4
1.467155751E1,-5.224999972E-3,5.279999971E-2,-1.374999993E-4
1.468164235E1,-1.897500083E-2,4.743750021E-2,-1.374999993E-4
1.469172698E1,-3.286249936E-2,2.722499892E-2,5.087499972E-3
1.470181158E1,-4.138749838E-2,1.649999991E-3,1.154999994E-2
1.471189626E1,-4.675000161E-2,-2.282499894E-2,1.581249945E-2
1.472198087E1,-4.344999790E-2,-3.767500073E-2,1.471249945E-2
1.473206550E1,-3.396249935E-2,-4.193750024E-2,1.044999994E-2
1.474215011E1,-2.227500081E-2,-3.877500072E-2,7.287499961E-3
1.475223496E1,-1.044999994E-2,-3.561250120E-2,-1.374999993E-4
1.476231958E1,-1.924999990E-3,-3.135000169E-2,-8.662499487E-3
1.477240429E1,6.462499965E-3,-3.024999984E-2,-1.718750037E-2
1.478248891E1,1.608750038E-2,-3.341250122E-2,-2.571249940E-2
1.479257353E1,2.144999988E-2,-3.561250120E-2,-3.217500076E-2
1.480265814E1,2.461249940E-2,-4.303750023E-2,-3.533750027E-2
1.481274295E1,2.144999988E-2,-5.156249925E-2,-3.313750029E-2
1.482282758E1,2.144999988E-2,-5.788749829E-2,-2.791249938E-2
1.483291227E1,2.461249940E-2,-6.324999779E-2,-2.144999988E-2
1.484299692E1,2.461249940E-2,-6.751249731E-2,-1.828750037E-2
1.485308175E1,1.828750037E-2,-6.215000153E-2,-1.402499992E-2
1.486316636E1,7.562499959E-3,-5.362499878E-2,-9.762499481E-3
1.487325105E1,-5.224999972E-3,-4.936249927E-2,-5.499999970E-3
1.488333567E1,-1.471249945E-2,-4.619999975E-2,-3.437499981E-3
1.489342028E1,-2.433750033E-2,-4.303750023E-2,-1.374999993E-4
1.490350512E1,-3.286249936E-2,-3.561250120E-2,-1.374999993E-4
1.491358973E1,-3.822499886E-2,-3.024999984E-2,-2.337499987E-3
1.492367436E1,-3.918749839E-2,-2.708750032E-2,-5.499999970E-3
1.493375906E1,-2.969999984E-2,-1.952499896E-2,-9.762499481E-3
1.494384368E1,-2.227500081E-2,-1.429999992E-2,-1.608750038E-2
1.495392830E1,-1.044999994E-2,-1.319999993E-2,-2.144999988E-2
1.496401314E1,4.399999976E-3,-1.636249945E-2,-2.364999987E-2
1.497409773E1,1.498750038E-2,-2.282499894E-2,-1.828750037E-2
1.498418242E1,2.461249940E-2,-2.708750032E-2,-7.562499959E-3
1.499426705E1,3.423750028E-2,-2.598750032E-2,-2.337499987E-3
1.500435166E1,4.276249930E-2,-2.488750033E-2,3.024999984E-3
1.501443650E1,4.482499883E-2,-2.378750034E-2,8.387500420E-3
1.502452114E1,3.946249932E-2,-2.378750034E-2,9.349999949E-3
1.503460574E1,3.203750029E-2,-2.708750032E-2,1.044999994E-2
1.504469041E1,1.924999990E-2,-3.135000169E-2,1.044999994E-2
1.505477503E1,5.499999970E-3,-2.914999984E-2,9.349999949E-3
1.506485988E1,-3.024999984E-3,-2.172499895E-2,7.287499961E-3
1.507494449E1,-8.387500420E-3,-1.746249944E-2,3.024999984E-3
1.508502909E1,-9.487500414E-3,-1.539999992E-2,-1.374999993E-4
1.509511377E1,-5.224999972E-3,-1.209999993E-2,-5.499999970E-3
1.510519840E1,-4.124999978E-3,-1.636249945E-2,-1.182499994E-2
1.511528299E1,1.374999993E-4,-2.172499895E-2,-1.512499992E-2
1.512536761E1,6.462499965E-3,-2.598750032E-2,-1.608750038E-2
1.513545253E1,9.762499481E-3,-2.598750032E-2,-1.608750038E-2
1.514553707E1,1.072499994E-2,-2.062499896E-2,-1.292499993E-2
1.515562176E1,1.402499992E-2,-1.113750041E-2,-7.562499959E-3
1.516570640E1,1.608750038E-2,2.749999985E-3,-1.237499993E-3
1.517579123E1,1.718750037E-2,1.979999989E-2,1.924999990E-3
1.518587585E1,1.828750037E-2,3.355000168E-2,3.024999984E-3
1.519596045E1,1.608750038E-2,4.111250117E-2,3.024999984E-3
1.520604515E1,9.762499481E-3,4.427500069E-2,6.187499966E-3
1.521612976E1,6.462499965E-3,4.111250117E-2,8.387500420E-3
1.522621461E1,4.399999976E-3,3.891250119E-2,9.349999949E-3
1.523629924E1,6.462499965E-3,4.001250118E-2,7.287499961E-3
1.524638385E1,8.662499487E-3,4.427500069E-2,3.024999984E-3
1.525646848E1,8.662499487E-3,4.633750021E-2,-1.374999993E-4
1.526655317E1,5.499999970E-3,5.059999973E-2,-2.337499987E-3
1.527663780E1,3.299999982E-3,5.169999972E-2,-3.437499981E-3
1.528672266E1,4.399999976E-3,5.486249924E-2,-3.437499981E-3
1.529680728E1,5.499999970E-3,5.816249922E-2,-3.437499981E-3
1.530689189E1,6.462499965E-3,5.706249923E-2,-2.337499987E-3
1.531697660E1,6.462499965E-3,5.169999972E-2,-1.237499993E-3
1.532706121E1,9.762499481E-3,4.427500069E-2,4.124999978E-3
1.533714606E1,1.608750038E-2,3.575000167E-2,9.349999949E-3
1.534723042E1,2.144999988E-2,3.258749843E-2,1.581249945E-2
1.535731526E1,2.667500079E-2,3.258749843E-2,1.897500083E-2
1.536739996E1,3.093750030E-2,3.684999794E-2,2.007500082E-2
1.537748459E1,3.093750030E-2,3.781250119E-2,1.897500083E-2
1.538756920E1,2.997500077E-2,2.832499892E-2,1.787500083E-2
1.539765405E1,2.667500079E-2,1.333750039E-2,1.581249945E-2
1.540773868E1,1.828750037E-2,3.849999979E-3,1.361249946E-2
1.541782338E1,1.182499994E-2,-3.574999981E-3,1.044999994E-2
1.542790799E1,1.237499993E-3,-7.837500423E-3,8.387500420E-3
1.543799260E1,-1.154999994E-2,-1.429999992E-2,9.349999949E-3
1.544807722E1,-1.897500083E-2,-1.952499896E-2,8.387500420E-3
1.545816207E1,-2.007500082E-2,-1.856249943E-2,7.287499961E-3
1.546824668E1,-1.471249945E-2,-1.113750041E-2,4.124999978E-3
1.547833130E1,-1.154999994E-2,-2.612499986E-3,-1.374999993E-4
1.548841601E1,-6.187499966E-3,5.912499968E-3,-4.399999976E-3
1.549850061E1,-9.624999948E-4,1.333750039E-2,-1.086249948E-2
1.550858546E1,5.499999970E-3,1.869999990E-2,-1.608750038E-2
1.551867009E1,1.402499992E-2,2.516249940E-2,-2.364999987E-2
1.552875470E1,2.144999988E-2,3.684999794E-2,-2.461249940E-2
1.553883940E1,2.461249940E-2,4.537500069E-2,-2.461249940E-2
1.554892394E1,2.667500079E-2,5.059999973E-2,-2.254999988E-2
1.555900864E1,2.571249940E-2,6.228749827E-2,-1.828750037E-2
1.556909327E1,2.034999989E-2,7.301250100E-2,-1.182499994E-2
1.557917811E1,1.402499992E-2,8.359999955E-2,-5.499999970E-3
1.558926272E1,9.762499481E-3,9.955000132E-2,-1.374999993E-4
1.559934732E1,3.299999982E-3,1.165999994E-1,6.187499966E-3
1.560943201E1,2.199999988E-3,1.197625026E-1,9.349999949E-3
1.561951663E1,3.299999982E-3,1.134374961E-1,1.044999994E-2
1.562960147E1,4.399999976E-3,1.006499976E-1,7.287499961E-3
1.563968610E1,4.399999976E-3,8.263749629E-2,3.024999984E-3
1.564977072E1,9.762499481E-3,5.912499875E-2,-5.499999970E-3
1.565985541E1,1.292499993E-2,3.464999795E-2,-1.086249948E-2
1.566994003E1,1.608750038E-2,1.237499993E-2,-1.292499993E-2
1.568002464E1,1.182499994E-2,-2.612499986E-3,-1.182499994E-2
1.569010926E1,7.562499959E-3,-1.856249943E-2,-7.562499959E-3
1.570019410E1,1.237499993E-3,-3.451250121E-2,-5.499999970E-3
1.571027872E1,-7.287499961E-3,-4.826249927E-2,-4.399999976E-3
1.572036341E1,-1.374999993E-2,-6.215000153E-2,1.924999990E-3
1.573044802E1,-1.374999993E-2,-6.751249731E-2,4.124999978E-3
1.574053289E1,-5.224999972E-3,-7.067500055E-2,5.087499972E-3
1.575061728E1,7.562499959E-3,-8.346249908E-2,4.124999978E-3
1.576070210E1,1.718750037E-2,-9.088750184E-2,4.124999978E-3
1.577078670E1,2.571249940E-2,-9.831249714E-2,5.087499972E-3
1.578087139E1,3.629999980E-2,-1.014750004E-1,4.124999978E-3
1.579095600E1,4.166249931E-2,-1.047749966E-1,5.087499972E-3
1.580104059E1,3.849999979E-2,-1.025749967E-1,3.024999984E-3
1.581112544E1,3.203750029E-2,-9.515000135E-2,3.024999984E-3
1.582121004E1,2.667500079E-2,-8.882500231E-2,7.287499961E-3
1.583129464E1,1.718750037E-2,-8.126249909E-2,9.349999949E-3
1.584137935E1,4.399999976E-3,-6.861250103E-2,1.044999994E-2
1.585146398E1,-9.487500414E-3,-5.582499877E-2,1.581249945E-2
1.586154859E1,-2.117500082E-2,-4.303750023E-2,2.103750035E-2
1.587163322E1,-3.286249936E-2,-3.024999984E-2,2.213750035E-2
1.588171805E1,-4.771250114E-2,-2.062499896E-2,2.323750034E-2
1.589180267E1,-5.197500065E-2,-1.003750041E-2,2.323750034E-2
1.590188727E1,-4.248749837E-2,-8.937500417E-3,2.433750033E-2
1.591197197E1,-2.969999984E-2,-1.319999993E-2,2.639999986E-2
1.592205660E1,-1.691249944E-2,-1.952499896E-2,2.529999986E-2
1.593214144E1,-9.487500414E-3,-1.952499896E-2,1.787500083E-2
1.594222607E1,-8.387500420E-3,-2.062499896E-2,8.387500420E-3
1.595231069E1,-1.044999994E-2,-2.708750032E-2,-4.399999976E-3
1.596239532E1,-9.487500414E-3,-3.231250122E-2,-1.512499992E-2
1.597248001E1,-5.224999972E-3,-4.193750024E-2,-2.681249939E-2
1.598256463E1,1.237499993E-3,-5.156249925E-2,-3.533750027E-2
1.599264946E1,7.562499959E-3,-5.788749829E-2,-4.056249931E-2
1.600273384E1,1.402499992E-2,-6.008749828E-2,-4.276249930E-2
1.601281868E1,1.924999990E-2,-5.472499877E-2,-4.276249930E-2
1.602290328E1,2.461249940E-2,-5.362499878E-2,-3.739999980E-2
1.603298795E1,2.997500077E-2,-5.252499878E-2,-2.791249938E-2
1.604307257E1,3.519999981E-2,-4.399999976E-2,-1.828750037E-2
1.605315719E1,3.519999981E-2,-2.488750033E-2,-1.292499993E-2
1.606324180E1,3.519999981E-2,-5.774999969E-3,-6.599999964E-3
1.607332667E1,3.423750028E-2,7.012499962E-3,8.249999955E-4
1.608341129E1,2.997500077E-2,1.553750038E-2,7.287499961E-3
1.609349598E1,2.461249940E-2,2.089999989E-2,9.349999949E-3
1.610358060E1,2.144999988E-2,2.722499892E-2,9.349999949E-3
1.611366521E1,1.292499993E-2,3.258749843E-2,9.349999949E-3
1.612374982E1,7.562499959E-3,3.891250119E-2,1.154999994E-2
1.613383444E1,7.562499959E-3,4.963750020E-2,1.264999993E-2
1.614391930E1,3.299999982E-3,6.338749826E-2,1.044999994E-2
1.615400392E1,-9.624999948E-4,7.191249728E-2,5.087499972E-3
1.616408861E1,-9.624999948E-4,6.984999776E-2,3.024999984E-3
1.617417316E1,-1.924999990E-3,4.963750020E-2,3.024999984E-3
1.618425787E1,-7.287499961E-3,3.355000168E-2,1.924999990E-3
1.619434274E1,-9.487500414E-3,2.516249940E-2,1.924999990E-3
1.620442736E1,-1.264999993E-2,1.979999989E-2,8.249999955E-4
1.621451200E1,-1.374999993E-2,2.089999989E-2,-1.374999993E-4
1.622459663E1,-1.581249945E-2,1.979999989E-2,1.924999990E-3
1.623468130E1,-1.801249944E-2,1.869999990E-2,3.024999984E-3
1.624476592E1,-1.801249944E-2,1.759999990E-2,1.924999990E-3
1.625485053E1,-1.801249944E-2,1.443750039E-2,3.024999984E-3
1.626493535E1,-1.581249945E-2,7.012499962E-3,4.124999978E-3
1.627501998E1,-1.044999994E-2,-3.574999981E-3,6.187499966E-3
1.628510460E1,-4.124999978E-3,-1.539999992E-2,6.187499966E-3
1.629518924E1,5.499999970E-3,-2.062499896E-2,4.124999978E-3
1.630527393E1,1.608750038E-2,-1.636249945E-2,-1.374999993E-4
1.631535853E1,2.777500078E-2,-7.837500423E-3,-2.337499987E-3
1.632544314E1,3.739999980E-2,-1.512499992E-3,-5.499999970E-3
1.633552799E1,4.372499883E-2,1.649999991E-3,-1.086249948E-2
1.634561259E1,4.482499883E-2,6.874999963E-4,-1.402499992E-2
1.635569727E1,4.592499882E-2,-6.874999963E-3,-2.034999989E-2
1.636578182E1,4.798749834E-2,-1.319999993E-2,-2.571249940E-2
1.637586650E1,4.798749834E-2,-2.282499894E-2,-2.791249938E-2
1.638595111E1,4.702499881E-2,-3.231250122E-2,-2.887500077E-2
1.639603572E1,4.166249931E-2,-3.451250121E-2,-2.791249938E-2
1.640612056E1,3.519999981E-2,-2.708750032E-2,-2.791249938E-2
1.641620516E1,2.777500078E-2,-1.429999992E-2,-2.461249940E-2
1.642628986E1,1.828750037E-2,-5.774999969E-3,-2.034999989E-2
1.643637446E1,1.072499994E-2,-4.124999978E-4,-1.718750037E-2
1.644645908E1,5.499999970E-3,5.912499968E-3,-1.182499994E-2
1.645654368E1,1.237499993E-3,5.912499968E-3,-3.437499981E-3
1.646662831E1,2.199999988E-3,-5.774999969E-3,4.124999978E-3
1.647671317E1,7.562499959E-3,-1.856249943E-2,1.044999994E-2
1.648679781E1,1.718750037E-2,-3.657500073E-2,1.691249944E-2
1.649688241E1,2.777500078E-2,-5.898749828E-2,2.433750033E-2
1.650696710E1,3.739999980E-2,-8.126249909E-2,2.639999986E-2
1.651705172E1,3.739999980E-2,-1.068374962E-1,2.639999986E-2
1.652713632E1,2.667500079E-2,-1.398375034E-1,2.529999986E-2
1.653722116E1,5.499999970E-3,-1.717374921E-1,2.213750035E-2
1.654730579E1,-1.801249944E-2,-1.898874938E-1,1.471249945E-2
1.655739040E1,-3.822499886E-2,-1.867250055E-1,1.924999990E-3
1.656747501E1,-5.417500064E-2,-1.643124968E-1,-1.182499994E-2
1.657755964E1,-6.366249919E-2,-1.270499974E-1,-2.461249940E-2
1.658764432E1,-6.586249918E-2,-7.603749633E-2,-3.739999980E-2
1.659772894E1,-5.307500064E-2,-2.708750032E-2,-4.908749834E-2
1.660781377E1,-2.749999985E-2,1.127499994E-2,-5.555000156E-2
1.661789838E1,5.499999970E-3,3.148749843E-2,-5.555000156E-2
1.662798300E1,3.203750029E-2,4.001250118E-2,-5.238749832E-2
1.663806761E1,5.018749833E-2,4.537500069E-2,-4.482499883E-2
1.664815230E1,6.077500060E-2,5.169999972E-2,-3.959999979E-2
1.665823689E1,6.393750012E-2,6.764999777E-2,-3.533750027E-2
1.666832153E1,6.393750012E-2,8.470000327E-2,-2.681249939E-2
1.667840614E1,6.393750012E-2,9.432499856E-2,-1.828750037E-2
1.668849099E1,6.393750012E-2,9.748750180E-2,-1.182499994E-2
1.669857561E1,5.761250108E-2,9.006249905E-2,-5.499999970E-3
1.670866023E1,4.372499883E-2,6.875000149E-2,-1.374999993E-4
1.671874483E1,2.777500078E-2,3.781250119E-2,1.924999990E-3
1.672882954E1,8.662499487E-3,8.112499490E-3,-2.337499987E-3
1.673891415E1,-6.187499966E-3,-1.636249945E-2,-6.599999964E-3
1.674899875E1,-1.374999993E-2,-3.561250120E-2,-1.182499994E-2
1.675908360E1,-1.044999994E-2,-4.509999976E-2,-1.512499992E-2
1.676916820E1,-9.624999948E-4,-4.826249927E-2,-1.512499992E-2
1.677925282E1,1.292499993E-2,-4.729999974E-2,-1.292499993E-2
1.678933750E1,2.571249940E-2,-4.826249927E-2,-1.086249948E-2
1.679942213E1,3.519999981E-2,-5.582499877E-2,-7.562499959E-3
1.680950673E1,3.849999979E-2,-6.861250103E-2,-2.337499987E-3
1.681959133E1,3.849999979E-2,-8.236250281E-2,6.187499966E-3
1.682967597E1,3.849999979E-2,-8.662500232E-2,8.387500420E-3
1.683976079E1,4.276249930E-2,-7.493750006E-2,6.187499966E-3
1.684984542E1,5.018749833E-2,-5.156249925E-2,-1.237499993E-3
1.685993002E1,5.761250108E-2,-2.488750033E-2,-8.662499487E-3
1.687001462E1,6.187500060E-2,2.749999985E-3,-1.828750037E-2
1.688009931E1,6.503749639E-2,2.089999989E-2,-2.364999987E-2
1.689018394E1,6.297499686E-2,3.684999794E-2,-2.791249938E-2
1.690026878E1,5.224999785E-2,5.389999971E-2,-2.997500077E-2
1.691035341E1,4.482499883E-2,7.191249728E-2,-2.997500077E-2
1.692043804E1,4.056249931E-2,8.579999954E-2,-2.681249939E-2
1.693052267E1,4.166249931E-2,9.955000132E-2,-2.144999988E-2
1.694060729E1,4.908749834E-2,1.145374998E-1,-1.718750037E-2
1.695069198E1,5.871250108E-2,1.282874942E-1,-1.402499992E-2
1.696077660E1,6.929999590E-2,1.347499937E-1,-9.762499481E-3
1.697086120E1,7.356250286E-2,1.315875053E-1,-6.599999964E-3
1.698094581E1,6.503749639E-2,1.134374961E-1,-4.399999976E-3
1.699103066E1,5.444999784E-2,9.212499857E-2,6.187499966E-3
1.700111534E1,4.908749834E-2,6.558749825E-2,1.264999993E-2
1.701119996E1,3.423750028E-2,3.464999795E-2,1.264999993E-2
1.702128451E1,5.499999970E-3,9.074999951E-3,8.387500420E-3
1.703136922E1,-1.897500083E-2,-3.574999981E-3,-1.374999993E-4
1.704145386E1,-2.639999986E-2,-8.937500417E-3,-4.399999976E-3
1.705153871E1,-2.117500082E-2,-1.856249943E-2,-5.499999970E-3
1.706162334E1,-1.691249944E-2,-3.451250121E-2,-8.662499487E-3
1.707170794E1,-1.154999994E-2,-5.156249925E-2,-1.182499994E-2
1.708179256E1,-1.924999990E-3,-6.008749828E-2,-1.608750038E-2
1.709187725E1,3.299999982E-3,-7.273750007E-2,-1.938750036E-2
1.710196185E1,1.374999993E-4,-8.346249908E-2,-2.364999987E-2
1.711204647E1,8.662499487E-3,-8.456250280E-2,-2.254999988E-2
1.712213106E1,1.828750037E-2,-8.346249908E-2,-2.254999988E-2
1.713221592E1,3.093750030E-2,-7.919999957E-2,-1.718750037E-2
1.714230054E1,3.946249932E-2,-6.861250103E-2,-1.182499994E-2
1.715238516E1,4.276249930E-2,-5.898749828E-2,-1.086249948E-2
1.716246986E1,4.592499882E-2,-5.046249926E-2,-9.762499481E-3
1.717255447E1,4.908749834E-2,-4.619999975E-2,-1.182499994E-2
1.718263908E1,5.128749833E-2,-4.083750024E-2,-1.182499994E-2
1.719272369E1,5.224999785E-2,-3.561250120E-2,-1.086249948E-2
1.720280851E1,5.335000157E-2,-2.914999984E-2,-1.402499992E-2
1.721289311E1,5.651250109E-2,-1.746249944E-2,-1.718750037E-2
1.722297773E1,6.187500060E-2,-3.574999981E-3,-2.144999988E-2
1.723306233E1,6.723749638E-2,5.912499968E-3,-2.461249940E-2
1.724314696E1,6.819999963E-2,1.237499993E-2,-2.254999988E-2
1.725323167E1,6.929999590E-2,1.237499993E-2,-2.034999989E-2
1.726331652E1,7.039999962E-2,7.012499962E-3,-1.512499992E-2
1.727340115E1,7.039999962E-2,1.127499994E-2,-1.292499993E-2
1.728348576E1,6.613750011E-2,1.979999989E-2,-9.762499481E-3
1.729357036E1,7.150000334E-2,3.464999795E-2,-1.374999993E-4
1.730365499E1,1.033999994E-1,6.132499874E-2,1.044999994E-2
1.731373968E1,1.086250022E-1,7.301250100E-2,1.361249946E-2
1.732382420E1,6.929999590E-2,8.786249906E-2,1.361249946E-2
1.733390890E1,-9.624999948E-4,3.781250119E-2,-2.337499987E-3
1.734399353E1,-6.792499870E-2,-4.124999978E-4,-1.292499993E-2
1.735407836E1,-7.864999771E-2,1.333750039E-2,-1.182499994E-2
1.736416298E1,-4.028749838E-2,2.406249940E-2,-3.437499981E-3
1.737424761E1,-1.264999993E-2,1.237499993E-2,-2.337499987E-3
1.738433223E1,-3.024999984E-3,8.112499490E-3,-7.562499959E-3
1.739441690E1,3.299999982E-3,-8.937500417E-3,-9.762499481E-3
1.740450152E1,4.399999976E-3,-3.451250121E-2,-8.662499487E-3
1.741458614E1,-9.624999948E-4,-5.678749830E-2,-1.292499993E-2
1.742467073E1,-6.187499966E-3,-5.788749829E-2,-1.182499994E-2
1.743475557E1,-1.154999994E-2,-6.751249731E-2,-9.762499481E-3
1.744484016E1,-2.007500082E-2,-5.788749829E-2,-1.292499993E-2
1.745492478E1,-2.117500082E-2,-5.582499877E-2,-1.512499992E-2
1.746500947E1,-2.227500081E-2,-6.641250104E-2,-1.512499992E-2
1.747509410E1,-2.117500082E-2,-7.699999958E-2,-1.182499994E-2
1.748517872E1,-1.897500083E-2,-8.126249909E-2,-7.562499959E-3
1.749526334E1,-1.044999994E-2,-8.030000329E-2,-1.237499993E-3
1.750534795E1,1.237499993E-3,-7.383749634E-2,4.124999978E-3
1.751543281E1,6.462499965E-3,-5.788749829E-2,1.154999994E-2
1.752551743E1,8.662499487E-3,-4.509999976E-2,1.581249945E-2
1.753560212E1,6.462499965E-3,-3.767500073E-2,1.787500083E-2
1.754568674E1,2.199999988E-3,-3.231250122E-2,1.897500083E-2
1.755577134E1,-1.924999990E-3,-3.024999984E-2,2.007500082E-2
1.756585597E1,-8.387500420E-3,-3.657500073E-2,1.787500083E-2
1.757594082E1,-2.007500082E-2,-3.024999984E-2,1.581249945E-2
1.758602543E1,-2.323750034E-2,-3.135000169E-2,2.007500082E-2
1.759611011E1,-2.433750033E-2,-4.303750023E-2,2.323750034E-2
1.760619466E1,-3.492499888E-2,-4.729999974E-2,2.103750035E-2
1.761627934E1,-4.248749837E-2,-4.303750023E-2,2.007500082E-2
1.762636397E1,-4.028749838E-2,-3.135000169E-2,2.007500082E-2
1.763644858E1,-3.602499887E-2,-1.952499896E-2,1.787500083E-2
1.764653342E1,-2.749999985E-2,-1.113750041E-2,1.471249945E-2
1.765661804E1,-2.117500082E-2,-1.512499992E-3,1.471249945E-2
1.766670264E1,-1.374999993E-2,7.012499962E-3,1.361249946E-2
1.767678727E1,-4.124999978E-3,1.017499994E-2,1.361249946E-2
1.768687196E1,4.399999976E-3,9.074999951E-3,1.154999994E-2
1.769695656E1,1.072499994E-2,7.012499962E-3,9.349999949E-3
1.770704118E1,1.718750037E-2,2.749999985E-3,5.087499972E-3
1.771712604E1,1.608750038E-2,-4.674999975E-3,1.924999990E-3
1.772721065E1,2.144999988E-2,-2.378750034E-2,-1.237499993E-3
1.773729527E1,3.423750028E-2,-5.472499877E-2,-1.237499993E-3
1.774737987E1,3.849999979E-2,-6.751249731E-2,3.024999984E-3
1.775746456E1,3.313750029E-2,-8.126249909E-2,1.924999990E-3
1.776754918E1,2.461249940E-2,-7.273750007E-2,5.087499972E-3
1.777763379E1,6.462499965E-3,-4.729999974E-2,8.387500420E-3
1.778771841E1,-2.323750034E-2,-4.303750023E-2,8.387500420E-3
1.779780325E1,-3.822499886E-2,-4.936249927E-2,9.349999949E-3
1.780788786E1,-4.344999790E-2,-4.936249927E-2,9.349999949E-3
1.781797248E1,-4.248749837E-2,-4.083750024E-2,4.124999978E-3
1.782805711E1,-3.492499888E-2,-2.378750034E-2,8.249999955E-4
1.783814182E1,-1.374999993E-2,-1.319999993E-2,8.249999955E-4
1.784822644E1,7.562499959E-3,-2.612499986E-3,3.024999984E-3
1.785831103E1,2.144999988E-2,7.012499962E-3,3.024999984E-3
1.786839564E1,2.667500079E-2,1.237499993E-2,5.087499972E-3
1.787848049E1,2.351249941E-2,1.443750039E-2,9.349999949E-3
1.788856512E1,1.718750037E-2,7.012499962E-3,1.154999994E-2
1.789864973E1,5.499999970E-3,-4.674999975E-3,1.154999994E-2
1.790873433E1,-1.471249945E-2,-1.429999992E-2,9.349999949E-3
1.791881903E1,-3.396249935E-2,-1.319999993E-2,1.924999990E-3
1.792890362E1,-5.417500064E-2,-3.574999981E-3,-5.499999970E-3
1.793898824E1,-6.696250290E-2,1.017499994E-2,-6.599999964E-3
1.794907311E1,-6.366249919E-2,1.979999989E-2,-7.562499959E-3
1.795915773E1,-4.771250114E-2,3.464999795E-2,-7.562499959E-3
1.796924235E1,-2.969999984E-2,3.464999795E-2,-3.437499981E-3
1.797932697E1,-1.154999994E-2,4.111250117E-2,-1.374999993E-4
1.798941166E1,-9.624999948E-4,3.891250119E-2,1.924999990E-3
1.799949629E1,1.072499994E-2,3.148749843E-2,-3.437499981E-3
1.800958089E1,1.608750038E-2,4.207500070E-2,-7.562499959E-3
1.801966573E1,2.351249941E-2,6.132499874E-2,-9.762499481E-3
1.802975010E1,3.313750029E-2,7.411249727E-2,-1.292499993E-2
1.803983495E1,4.056249931E-2,8.359999955E-2,-1.512499992E-2
1.804991956E1,3.849999979E-2,1.006499976E-1,-7.562499959E-3
1.806000418E1,2.997500077E-2,1.134374961E-1,8.387500420E-3
1.807008888E1,1.718750037E-2,1.208624989E-1,2.103750035E-2
1.808017350E1,-9.624999948E-4,1.219625026E-1,2.749999985E-2
1.809025809E1,-1.581249945E-2,1.282874942E-1,2.859999985E-2
1.810034273E1,-2.007500082E-2,1.538625062E-1,2.323750034E-2
1.811042756E1,-1.691249944E-2,1.805374920E-1,1.897500083E-2
1.812051218E1,-8.387500420E-3,1.857624948E-1,1.897500083E-2
1.813059677E1,3.299999982E-3,1.772374958E-1,2.213750035E-2
1.814068140E1,6.462499965E-3,1.644500047E-1,2.007500082E-2
1.815076611E1,-5.224999972E-3,1.410750002E-1,1.154999994E-2
1.816085072E1,-1.801249944E-2,1.123374999E-1,1.924999990E-3
1.817093533E1,-2.749999985E-2,8.470000327E-2,-1.086249948E-2
1.818101995E1,-3.066249937E-2,4.537500069E-2,-2.034999989E-2
1.819110458E1,-2.969999984E-2,9.074999951E-3,-2.791249938E-2
1.820118942E1,-2.969999984E-2,-2.488750033E-2,-2.791249938E-2
1.821127403E1,-2.543750033E-2,-6.008749828E-2,-2.254999988E-2
1.822135873E1,-2.007500082E-2,-9.088750184E-2,-1.512499992E-2
1.823144332E1,-2.007500082E-2,-1.121999994E-1,-6.599999964E-3
1.824152796E1,-2.007500082E-2,-1.238875017E-1,5.087499972E-3
1.825161279E1,-1.581249945E-2,-1.281500012E-1,1.787500083E-2
1.826169719E1,-1.374999993E-2,-1.292500049E-1,2.859999985E-2
1.827178182E1,-1.471249945E-2,-1.355749965E-1,3.492499888E-2
1.828186666E1,-2.227500081E-2,-1.387374997E-1,3.918749839E-2
1.829195128E1,-3.822499886E-2,-1.344749928E-1,4.028749838E-2
1.830203597E1,-5.733750015E-2,-1.196250021E-1,3.712499887E-2
1.831212062E1,-6.696250290E-2,-1.005124971E-1,2.956249937E-2
1.832220521E1,-5.939999968E-2,-7.273750007E-2,2.007500082E-2
1.833228983E1,-3.822499886E-2,-4.303750023E-2,1.044999994E-2
1.834237466E1,-1.897500083E-2,-1.636249945E-2,4.124999978E-3
1.835245929E1,-7.287499961E-3,1.017499994E-2,-1.374999993E-4
1.836254390E1,4.399999976E-3,3.684999794E-2,-3.437499981E-3
1.837262853E1,1.498750038E-2,6.338749826E-2,-4.399999976E-3
1.838271315E1,1.924999990E-2,9.528750181E-2,-5.499999970E-3
1.839279776E1,2.144999988E-2,1.304875016E-1,-7.562499959E-3
1.840288246E1,2.254999988E-2,1.634874940E-1,-1.086249948E-2
1.841296708E1,2.034999989E-2,1.879625022E-1,-9.762499481E-3
1.842305170E1,2.144999988E-2,1.857624948E-1,-5.499999970E-3
1.843313632E1,2.254999988E-2,1.677500010E-1,-1.374999993E-4
1.844322117E1,1.608750038E-2,1.464374959E-1,3.024999984E-3
1.845330578E1,7.562499959E-3,1.240250021E-1,8.387500420E-3
1.846339044E1,1.182499994E-2,8.676250279E-2,1.154999994E-2
1.847347507E1,2.254999988E-2,5.389999971E-2,1.361249946E-2
1.848355969E1,1.402499992E-2,2.186249942E-2,1.897500083E-2
1.849364430E1,3.299999982E-3,-1.003750041E-2,3.286249936E-2
1.850372894E1,-9.624999948E-4,-4.936249927E-2,4.881250113E-2
1.851381378E1,-1.374999993E-2,-7.493750006E-2,5.623750016E-2
1.852389840E1,-2.969999984E-2,-9.515000135E-2,5.733750015E-2
1.853398301E1,-4.248749837E-2,-1.111000031E-1,5.403750017E-2
1.854406763E1,-5.197500065E-2,-1.175625026E-1,4.881250113E-2
1.855415229E1,-5.513750017E-2,-1.270499974E-1,4.028749838E-2
1.856423691E1,-5.417500064E-2,-1.420374960E-1,3.382499889E-2
1.857432152E1,-5.197500065E-2,-1.600500047E-1,2.639999986E-2
1.858440636E1,-5.087500066E-2,-1.824624985E-1,2.007500082E-2
1.859449072E1,-4.564999789E-2,-1.962125003E-1,1.154999994E-2
1.860457557E1,-3.822499886E-2,-1.984124929E-1,5.087499972E-3
1.861466018E1,-3.712499887E-2,-1.782000065E-1,-4.399999976E-3
1.862474478E1,-4.564999789E-2,-1.483625025E-1,-1.512499992E-2
1.863482940E1,-4.675000161E-2,-1.175625026E-1,-2.571249940E-2
1.864491409E1,-3.396249935E-2,-8.772499859E-2,-3.629999980E-2
1.865499873E1,-1.801249944E-2,-6.641250104E-2,-4.592499882E-2
1.866508335E1,5.499999970E-3,-4.936249927E-2,-4.908749834E-2
1.867516796E1,2.667500079E-2,-3.657500073E-2,-4.276249930E-2
1.868525281E1,3.946249932E-2,-2.488750033E-2,-2.681249939E-2
1.869533742E1,4.276249930E-2,-1.636249945E-2,-6.599999964E-3
1.870542201E1,3.093750030E-2,-1.539999992E-2,1.471249945E-2
1.871550664E1,5.499999970E-3,-2.708750032E-2,3.382499889E-2
1.872559125E1,-2.749999985E-2,-4.509999976E-2,5.087500066E-2
1.873567587E1,-6.049999967E-2,-5.788749829E-2,5.829999968E-2
1.874576056E1,-9.033749998E-2,-6.324999779E-2,6.049999967E-2
1.875584519E1,-1.094499975E-1,-7.177499682E-2,5.623750016E-2
1.876592983E1,-1.190750003E-1,-8.662500232E-2,4.771250114E-2
1.877601467E1,-1.159124970E-1,-1.025749967E-1,3.382499889E-2
1.878609930E1,-9.666249901E-2,-1.249874979E-1,2.007500082E-2
1.879618394E1,-7.012499869E-2,-1.589500010E-1,1.044999994E-2
1.880626857E1,-4.248749837E-2,-1.973125041E-1,7.287499961E-3
1.881635318E1,-2.543750033E-2,-2.303124964E-1,9.349999949E-3
1.882643780E1,-1.897500083E-2,-2.547875047E-1,9.349999949E-3
1.883652249E1,-1.897500083E-2,-2.718375027E-1,8.387500420E-3
1.884660708E1,-2.323750034E-2,-2.824249864E-1,5.087499972E-3
1.885669170E1,-3.492499888E-2,-2.813250124E-1,1.924999990E-3
1.886677633E1,-4.771250114E-2,-2.718375027E-1,-2.337499987E-3
1.887686117E1,-5.843750015E-2,-2.601499856E-1,-2.337499987E-3
1.888694578E1,-6.159999967E-2,-2.525874972E-1,-1.237499993E-3
1.889703038E1,-6.270000339E-2,-2.419999987E-1,-1.374999993E-4
1.890711508E1,-6.792499870E-2,-2.271499932E-1,-2.337499987E-3
1.891719962E1,-7.548750192E-2,-2.132624984E-1,-5.499999970E-3
1.892728425E1,-7.864999771E-2,-1.984124929E-1,-8.662499487E-3
1.893736894E1,-7.755000144E-2,-1.856250018E-1,-6.599999964E-3
1.894745356E1,-7.218749821E-2,-1.696749926E-1,-3.437499981E-3
1.895753818E1,-6.366249919E-2,-1.537249982E-1,8.249999955E-4
1.896762302E1,-5.623750016E-2,-1.398375034E-1,7.287499961E-3
1.897770762E1,-4.881250113E-2,-1.324124932E-1,1.471249945E-2
1.898779224E1,-3.918749839E-2,-1.270499974E-1,1.897500083E-2
1.899787684E1,-3.492499888E-2,-1.185249984E-1,1.154999994E-2
1.900796146E1,-3.176249936E-2,-1.121999994E-1,8.249999955E-4
1.901804615E1,-2.323750034E-2,-1.047749966E-1,-1.086249948E-2
1.902813078E1,-8.387500420E-3,-1.047749966E-1,-2.791249938E-2
1.903821539E1,5.499999970E-3,-1.005124971E-1,-4.386249930E-2
1.904830001E1,2.887500077E-2,-9.624999762E-2,-4.592499882E-2
1.905838460E1,5.335000157E-2,-9.721250087E-2,-4.386249930E-2
1.906846947E1,5.967500061E-2,-1.111000031E-1,-3.849999979E-2
1.907855409E1,5.761250108E-2,-1.132999957E-1,-3.313750029E-2
1.908863869E1,5.128749833E-2,-1.025749967E-1,-2.997500077E-2
1.909872330E1,4.166249931E-2,-1.005124971E-1,-2.461249940E-2
1.910880792E1,3.203750029E-2,-1.068374962E-1,-1.292499993E-2
1.911889252E1,2.034999989E-2,-1.153625026E-1,-1.374999993E-4
1.912897723E1,1.072499994E-2,-1.313125044E-1,1.471249945E-2
1.913906185E1,6.462499965E-3,-1.483625025E-1,2.956249937E-2
1.914914647E1,1.237499993E-3,-1.526249945E-1,4.344999790E-2
1.915923110E1,-9.487500414E-3,-1.420374960E-1,5.197500065E-2
1.916931596E1,-1.581249945E-2,-1.324124932E-1,5.939999968E-2
1.917940058E1,-1.801249944E-2,-1.207249984E-1,6.682500243E-2
1.918948520E1,-1.691249944E-2,-1.057374999E-1,6.792499870E-2
1.919956985E1,-1.691249944E-2,-9.198749810E-2,6.366249919E-2
1.920965446E1,-1.264999993E-2,-7.067500055E-2,5.307500064E-2
1.921973908E1,-1.924999990E-3,-4.193750024E-2,4.028749838E-2
1.922982378E1,9.762499481E-3,-5.774999969E-3,2.859999985E-2
1.923990840E1,1.718750037E-2,3.355000168E-2,2.007500082E-2
1.924999301E1,2.351249941E-2,6.984999776E-2,1.471249945E-2
1.926007787E1,2.667500079E-2,1.017500013E-1,1.264999993E-2
1.927016227E1,2.887500077E-2,1.251250058E-1,1.471249945E-2
1.928024711E1,3.093750030E-2,1.442375034E-1,1.691249944E-2
1.929033172E1,2.887500077E-2,1.603250057E-1,1.787500083E-2
1.930041632E1,3.423750028E-2,1.698125005E-1,1.581249945E-2
1.931050091E1,4.166249931E-2,1.581249982E-1,1.581249945E-2
1.932058561E1,4.592499882E-2,1.379124969E-1,1.897500083E-2
1.933067014E1,5.128749833E-2,1.208624989E-1,1.787500083E-2
1.934075481E1,5.871250108E-2,1.060125008E-1,1.044999994E-2
1.935083942E1,6.613750011E-2,8.676250279E-2,6.187499966E-3
1.936092403E1,6.613750011E-2,6.448750198E-2,4.124999978E-3
1.937100886E1,5.967500061E-2,3.464999795E-2,1.924999990E-3
1.938109325E1,5.224999785E-2,1.663750038E-2,6.187499966E-3
1.939117812E1,4.702499881E-2,7.012499962E-3,1.264999993E-2
1.940126273E1,3.519999981E-2,1.663750038E-2,1.471249945E-2
1.941134743E1,1.498750038E-2,2.832499892E-2,1.691249944E-2
1.942143206E1,-4.124999978E-3,3.355000168E-2,2.213750035E-2
1.943151667E1,-1.471249945E-2,3.258749843E-2,2.749999985E-2
1.944160131E1,-2.323750034E-2,2.942499891E-2,3.712499887E-2
1.945168592E1,-1.897500083E-2,2.612499893E-2,4.344999790E-2
1.946177054E1,-8.387500420E-3,5.389999971E-2,4.138749838E-2
1.947185538E1,3.299999982E-3,1.102750003E-1,3.176249936E-2
1.948194008E1,1.608750038E-2,1.507000029E-1,1.264999993E-2
1.949202462E1,2.461249940E-2,1.783374995E-1,-6.599999964E-3
1.950210926E1,3.423750028E-2,1.857624948E-1,-1.938750036E-2
1.951219387E1,4.482499883E-2,1.729750037E-1,-2.461249940E-2
1.952227851E1,4.908749834E-2,1.484999955E-1,-2.144999988E-2
1.953236320E1,4.798749834E-2,1.176999956E-1,-1.718750037E-2
1.954244781E1,4.592499882E-2,8.896250278E-2,-1.086249948E-2
1.955253242E1,4.166249931E-2,5.816249922E-2,-2.337499987E-3
1.956261706E1,3.203750029E-2,2.296249941E-2,4.124999978E-3
1.957270190E1,1.608750038E-2,-1.319999993E-2,9.349999949E-3
1.958278651E1,-3.024999984E-3,-5.156249925E-2,1.154999994E-2
1.959287113E1,-2.859999985E-2,-8.236250281E-2,1.264999993E-2
1.960295573E1,-5.417500064E-2,-1.005124971E-1,1.154999994E-2
1.961304037E1,-7.644999772E-2,-1.207249984E-1,4.124999978E-3
1.962312498E1,-9.776250273E-2,-1.313125044E-1,-3.437499981E-3
1.963320969E1,-1.083500013E-1,-1.313125044E-1,-7.562499959E-3
1.964329431E1,-1.073874980E-1,-1.207249984E-1,-9.762499481E-3
1.965337892E1,-1.020250022E-1,-1.079374999E-1,-1.086249948E-2
1.966346374E1,-9.350000322E-2,-9.088750184E-2,-1.182499994E-2
1.967354836E1,-7.755000144E-2,-7.699999958E-2,-1.182499994E-2
1.968363295E1,-5.843750015E-2,-6.861250103E-2,-6.599999964E-3
1.969371757E1,-4.138749838E-2,-6.104999781E-2,8.249999955E-4
1.970380226E1,-2.543750033E-2,-6.008749828E-2,8.387500420E-3
1.971388689E1,-1.691249944E-2,-6.751249731E-2,1.897500083E-2
1.972397149E1,-1.897500083E-2,-6.641250104E-2,2.859999985E-2
1.973405609E1,-2.543750033E-2,-6.324999779E-2,2.956249937E-2
1.974414070E1,-4.028749838E-2,-6.531249732E-2,2.859999985E-2
1.975422555E1,-4.771250114E-2,-7.493750006E-2,2.859999985E-2
1.976431018E1,-4.675000161E-2,-9.308750182E-2,2.639999986E-2
1.977439478E1,-4.771250114E-2,-1.185249984E-1,2.433750033E-2
1.978447940E1,-4.248749837E-2,-1.430000067E-1,2.639999986E-2
1.979456409E1,-4.028749838E-2,-1.579875052E-1,2.529999986E-2
1.980464864E1,-4.881250113E-2,-1.654125005E-1,2.433750033E-2
1.981473331E1,-5.087500066E-2,-1.665125042E-1,2.956249937E-2
1.982481792E1,-4.675000161E-2,-1.463000029E-1,3.492499888E-2
1.983490255E1,-4.675000161E-2,-1.302125007E-1,2.433750033E-2
1.984498718E1,-3.492499888E-2,-1.249874979E-1,1.787500083E-2
1.985507178E1,-4.138749838E-2,-1.313125044E-1,2.007500082E-2
1.986515665E1,-4.564999789E-2,-1.398375034E-1,2.007500082E-2
1.987524128E1,-3.712499887E-2,-1.366750002E-1,2.007500082E-2
1.988532589E1,-3.396249935E-2,-1.111000031E-1,1.691249944E-2
1.989541059E1,-3.176249936E-2,-8.978749812E-2,1.471249945E-2
1.990549522E1,-9.487500414E-3,-1.005124971E-1,1.581249945E-2
1.991557984E1,6.462499965E-3,-9.831249714E-2,1.154999994E-2
1.992566446E1,-4.028749838E-2,-1.398375034E-1,1.044999994E-2
1.993574908E1,-7.287499961E-3,-1.440999955E-1,2.529999986E-2
1.994583392E1,1.660999954E-1,-4.936249927E-2,-1.086249948E-2
1.995591852E1,9.803749621E-2,-8.030000329E-2,-1.608750038E-2
1.996600311E1,2.887500077E-2,-8.456250280E-2,-7.562499959E-3
1.997608770E1,4.056249931E-2,-8.772499859E-2,1.471249945E-2
1.998617238E1,2.571249940E-2,-1.227874979E-1,3.382499889E-2
